#;Hasomed RehaGait raw measurement data file;
#;Contains sensor calibrated raw values;
#;File version;3;
#;App version;1.3.16;
#;App type;36;
#;Patient ID;-1;
#;Patient name;COKI10367;EJ;
#;Patient date of birth;1942-12-25 00-00-00;
#;Patient age at measurement date;78,500000;years;
#;Patient body height;174;cm;
#;Measurement date;2021-06-01 14-59-35;
#;Sensor serial;1824;Sensor position;0; Sample rate;100;
#;Sensor serial;1825;Sensor position;1; Sample rate;100;
#;Sensor serial;1826;Sensor position;6; Sample rate;100;
#;Accelerometer data unit;Metre per second squared;
#;Gyroscope data unit;Degree per second;
#;Magnetic field data unit;Gauss;
#;Examiner;EJ;
#;Patient-ID;COKI10367;
#;Patient trial time;1;T1;
#;Assessment type;17;StraightWalkNormalPace;
#;Tool type;0;None;
# Sample number;Sensor position;AccX;AccY;AccZ;GyroX;GyroY;GyroZ;MagX;MagY;MagZ;Sensor position;AccX;AccY;AccZ;GyroX;GyroY;GyroZ;MagX;MagY;MagZ;Sensor position;AccX;AccY;AccZ;GyroX;GyroY;GyroZ;MagX;MagY;MagZ;Init algo done;Pause;
0;0;-0.5651;2.1760;9.4397;-0.1712;0.1914;0.0678;-0.3263;0.3937;-0.6917;1;0.9888;2.8401;9.5606;-0.4975;0.7388;0.1829;0.7445;-0.4563;-0.7385;6;10.0850;0.7100;1.0493;-0.6654;1.1345;-0.5856;-1.3436;-0.1539;-0.5107;0;0;
1;0;-0.6888;2.2951;9.2610;-0.1372;0.3750;0.0714;-0.3252;0.3170;-0.7276;1;0.9854;2.8969;9.3851;-0.3726;0.6785;0.2133;0.5163;-0.4143;-0.7265;6;9.7972;0.6533;0.8152;-0.6042;1.1959;-0.6176;-1.1960;-0.1240;-0.1162;1;0;
2;0;-0.2055;2.5264;9.3833;-0.1700;0.1602;0.2209;-0.2897;0.3538;-0.7076;1;1.1533;2.6655;9.1530;-0.4370;0.7379;0.0289;0.5163;-0.4023;-0.7325;6;9.9719;1.2220;1.1049;-0.5491;1.1381;-0.8349;-1.2275;-0.1055;-0.1162;1;0;
3;0;-0.6898;2.2958;9.2026;-0.2630;0.2209;0.1004;-0.2727;0.3524;-0.7234;1;1.3901;2.7244;9.5678;-0.4359;0.6758;-0.0015;0.5043;-0.4143;-0.7325;6;9.8035;0.5398;1.1585;-0.8042;1.1415;-1.0730;-1.1970;-0.1257;-0.2050;1;0;
4;0;-0.5070;2.1774;9.3240;-0.1414;0.1615;0.0053;-0.3054;0.2979;-0.7104;1;1.2133;3.0113;9.3314;-0.6568;0.9212;0.0291;0.5223;-0.4263;-0.7265;6;9.7976;1.1083;0.8727;-0.8006;1.1093;-0.9505;-1.1808;-0.1435;-0.1520;1;0;
5;0;-0.6839;2.5832;9.5493;-0.1090;0.2534;0.0069;-0.3082;0.3156;-0.7434;1;0.9362;2.6687;9.7930;-0.6881;0.9203;-0.0322;0.5163;-0.4083;-0.7385;6;9.4059;0.8815;1.1514;-0.5827;1.2003;-0.9255;-1.1802;-0.0867;-0.1857;1;0;
6;0;-0.6285;2.2366;9.2628;-0.1365;0.4978;-0.0490;-0.2322;0.2954;-0.6895;1;1.7313;2.9534;9.4582;-0.6247;0.8279;-0.0627;0.5223;-0.4023;-0.7325;6;9.7399;1.0515;0.8144;-0.3993;1.3234;-1.0222;-1.2282;-0.1253;-0.1524;1;0;
7;0;-0.7460;2.4680;9.4329;-0.2012;0.2215;0.0996;-0.2693;0.2964;-0.7084;1;1.2174;2.5519;9.5051;-0.6282;1.0140;-0.0023;0.5163;-0.4023;-0.7325;6;10.2020;1.2787;1.2808;-0.4015;1.2330;-1.0843;-1.1968;-0.1069;-0.2222;1;0;
8;0;-0.6221;2.1739;9.6139;-0.3290;0.0067;0.0350;-0.2508;0.3345;-0.6726;1;1.3288;2.4935;9.3313;-0.6892;0.9824;-0.0018;0.5223;-0.4083;-0.7385;6;9.4025;1.0520;0.9799;-0.4149;1.1333;-0.5009;-1.1958;-0.0494;-0.2204;1;0;
9;0;-0.8126;1.7729;9.0319;-0.2348;0.0378;0.1268;-0.3036;0.2797;-0.6942;1;1.0908;2.4918;8.8583;-0.3820;1.0159;-0.0653;0.5223;-0.3963;-0.7505;6;9.7450;1.1654;1.1007;-0.1878;1.1590;-0.1695;-1.1800;-0.0863;-0.1679;1;0;
10;0;-0.3895;2.7623;9.2020;-0.2038;0.0073;0.1872;-0.2855;0.2789;-0.6932;1;0.9902;2.6679;9.6184;-0.6603;1.0755;-0.0025;0.5163;-0.4023;-0.7205;6;9.6314;1.2224;1.0986;-0.2812;0.9764;-0.1681;-1.1800;-0.1048;-0.1330;1;0;
11;0;-0.4459;2.2933;9.3820;-0.1719;0.0687;0.1882;-0.2518;0.3339;-0.6894;1;1.1602;3.1274;9.5652;-0.7515;1.0127;-0.0016;0.5223;-0.4263;-0.7505;6;9.6852;1.1085;0.9279;-0.1281;1.0382;-0.2337;-1.2274;-0.0682;-0.1683;1;0;
12;0;-0.0890;2.2957;9.1548;-0.2331;0.0063;0.3414;-0.3062;0.3168;-0.7098;1;1.0430;2.7242;9.3854;-0.5645;0.9855;0.1818;0.5103;-0.4203;-0.7385;6;9.7992;0.7103;0.9297;-0.1302;0.9782;-0.2956;-1.2115;-0.0863;-0.1330;1;0;
13;0;-0.8069;2.2354;9.3764;-0.0790;0.1003;0.1569;-0.2722;0.3140;-0.7413;1;1.4507;2.7251;9.7446;-0.6883;0.9200;-0.0629;0.5103;-0.4203;-0.7205;6;10.1478;0.9377;1.3940;-0.1522;0.8216;0.0111;-1.1947;-0.0288;-0.1487;1;0;
14;0;-0.5683;2.2365;9.2638;-0.2029;0.0992;0.1277;-0.2322;0.2954;-0.6895;1;1.2174;2.5519;9.5051;-0.6267;0.8889;-0.1553;0.5404;-0.4143;-0.7265;6;9.7996;1.2221;0.9873;-0.3302;0.9094;0.2630;-1.1480;-0.0853;-0.1495;1;0;
15;0;-0.6248;2.6422;9.4912;-0.1391;0.1605;0.2205;-0.2709;0.3341;-0.7072;1;0.8765;2.8409;9.6755;-0.4716;0.8916;-0.0333;0.5223;-0.4143;-0.7565;6;9.4094;1.3935;1.3808;-0.1762;0.9707;0.2281;-1.2279;-0.1062;-0.1518;1;0;
16;0;-0.6220;2.1155;9.6146;-0.3244;0.2202;0.1319;-0.2539;0.3327;-0.7229;1;1.4969;2.7800;9.1602;-0.4091;0.8298;-0.0947;0.5103;-0.4203;-0.7385;6;9.5731;0.7674;0.9828;0.1266;1.1874;-0.0250;-1.1964;-0.1247;-0.1517;1;0;
17;0;-0.3812;2.0568;9.6196;-0.2022;0.1604;0.0983;-0.2871;0.3166;-0.6920;1;1.4454;2.6088;9.4512;-0.5022;0.8916;-0.0024;0.5223;-0.4263;-0.7385;6;9.6347;1.1088;1.2702;0.2807;1.2792;-0.0596;-1.1809;-0.1250;-0.1869;1;0;
18;0;-0.7460;2.4680;9.4329;-0.2008;0.2829;0.0394;-0.3250;0.3365;-0.7103;1;1.1597;2.7821;9.5050;-0.4775;1.2334;0.1491;0.5223;-0.4023;-0.7325;6;9.8097;0.5970;1.5019;0.2919;1.2435;0.3085;-1.1962;-0.1243;-0.1339;1;0;
19;0;-0.7431;2.6409;9.6059;-0.2349;0.1301;-0.0250;-0.3074;0.2967;-0.7440;1;1.0482;2.9556;9.6793;-0.5956;0.9531;0.0593;0.5283;-0.4143;-0.7385;6;9.4596;0.7676;0.9807;0.3670;1.2678;0.7366;-1.2116;-0.0866;-0.1508;1;0;
20;0;-0.3856;2.1765;9.3845;-0.2319;0.2519;0.0699;-0.3043;0.2985;-0.6937;1;1.3866;2.2058;9.3311;-0.7202;0.9818;-0.0323;0.5043;-0.4263;-0.7325;6;9.9150;1.3927;1.1040;0.1533;1.3273;0.8357;-1.1963;-0.0874;-0.2038;1;0;
21;0;-0.8092;2.3536;9.2581;-0.1696;0.2831;0.0698;-0.2502;0.2962;-0.6906;1;1.2117;2.6657;9.2127;-0.5344;0.9213;-0.0945;0.5283;-0.4023;-0.7325;6;9.6871;1.2792;1.0425;0.0018;1.1733;0.9619;-1.2433;-0.0685;-0.1686;1;0;
22;0;-0.8003;2.0559;9.7290;-0.2626;0.2823;0.0402;-0.3064;0.2973;-0.7272;1;1.1559;2.4360;9.2692;-0.6891;1.0142;0.0902;0.5163;-0.4083;-0.7265;6;9.5226;0.7678;1.3251;0.0924;1.0525;0.8968;-1.2280;-0.1250;-0.1346;1;0;
23;0;-0.8605;2.0560;9.7279;-0.3541;0.3116;0.1035;-0.2677;0.2586;-0.7095;1;1.5589;2.6084;9.3948;-0.5640;0.9543;0.1513;0.5103;-0.4143;-0.7265;6;9.6914;1.1087;1.2713;-0.5512;1.0187;1.1308;-1.1646;-0.1055;-0.1860;1;0;
24;0;-0.6904;1.9464;9.1486;-0.1127;0.0704;-0.0586;-0.2539;0.3327;-0.7229;1;1.2205;2.0348;9.6199;-0.5947;0.9224;0.0902;0.5163;-0.4023;-0.7325;6;9.7473;0.9949;1.2150;-0.5596;0.7483;0.8831;-1.2279;-0.0877;-0.1867;1;0;
25;0;-0.4439;2.4085;9.4973;-0.2944;0.3439;-0.1426;-0.3226;0.2798;-0.7121;1;1.4933;2.3188;8.9238;-0.6896;0.9501;-0.1553;0.4983;-0.4143;-0.7325;6;9.4624;1.0521;1.1526;-0.5356;0.6297;0.6663;-1.1964;-0.1247;-0.1517;1;0;
26;0;-0.6194;2.5218;9.7847;-0.5103;0.3416;-0.1092;-0.3218;0.2610;-0.7126;1;1.0421;2.6090;9.3263;-0.7200;0.9503;-0.0936;0.5163;-0.4083;-0.7265;6;9.5787;1.3364;1.3266;-0.7512;0.3548;0.7321;-1.2127;-0.1442;-0.1527;1;0;
27;0;-0.1387;2.3469;9.7370;-0.2365;0.0385;-0.0270;-0.2887;0.3544;-0.6909;1;1.0921;3.0099;8.9777;-0.6848;0.7657;-0.0313;0.5043;-0.4143;-0.7325;6;9.8587;0.9947;1.1026;-0.9942;0.3525;0.8929;-1.1957;-0.0863;-0.1505;1;0;
28;0;-0.5099;2.0045;9.1510;-0.1076;0.2221;0.1907;-0.2502;0.2962;-0.6906;1;1.2729;2.9542;9.4494;-0.6874;0.9212;0.0600;0.5103;-0.4143;-0.7325;6;9.6284;1.1654;0.9269;-1.1771;0.3511;0.9906;-1.2115;-0.0678;-0.1680;1;0;
29;0;-0.6275;2.2943;9.3204;0.0138;0.1319;0.1257;-0.2691;0.3158;-0.6910;1;1.4947;2.7794;9.0430;-0.7196;0.8873;-0.2162;0.5163;-0.4143;-0.7205;6;9.6351;0.7676;1.2700;-0.6893;0.6596;0.7019;-1.2115;-0.0863;-0.1330;1;0;
30;0;-0.6895;2.0624;9.2055;-0.0811;-0.0834;0.2452;-0.2330;0.3142;-0.6889;1;0.7587;2.7828;9.4973;-0.5943;0.8594;-0.0324;0.5103;-0.4083;-0.7445;6;10.0847;0.9943;1.0496;-0.2310;0.8455;0.4746;-1.1649;-0.1431;-0.1517;1;0;
31;0;-0.5638;2.0585;9.4996;-0.0829;-0.1134;0.1216;-0.2520;0.3144;-0.7067;1;1.2104;2.7804;9.1546;-0.5672;1.0137;-0.0949;0.5223;-0.4143;-0.7385;6;9.9214;1.2223;1.4472;-0.1378;0.9368;0.4725;-1.1966;-0.1250;-0.1695;1;0;
32;0;-0.4450;2.4093;9.4389;0.0693;-0.2032;0.0562;-0.3260;0.3359;-0.7271;1;1.3911;2.7822;9.6266;-0.7564;1.1970;-0.1256;0.5103;-0.4083;-0.7205;6;10.0317;1.2789;1.2777;-0.2662;0.9694;0.3230;-1.2433;-0.0685;-0.1686;1;0;
33;0;-0.6866;2.2352;9.3785;-0.2664;-0.0237;0.1566;-0.2873;0.2971;-0.7094;1;1.2151;2.6089;9.3882;-0.9405;1.1645;-0.0936;0.5103;-0.4083;-0.7445;6;9.5708;0.9948;0.8685;-0.0778;0.9377;0.4093;-1.1968;-0.1254;-0.1873;1;0;
34;0;-0.7974;2.2288;9.9020;0.0411;-0.1431;0.2117;-0.3077;0.3546;-0.7087;1;0.9372;2.7840;9.8521;-0.9119;1.2255;-0.2170;0.5043;-0.4203;-0.7385;6;9.9692;0.9375;0.9330;-0.2281;1.1489;0.5384;-1.2440;-0.1068;-0.1699;1;0;
35;0;-0.3886;2.0620;9.2108;0.1009;-0.2032;0.1173;-0.2902;0.3148;-0.7423;1;0.8704;3.1846;9.3842;-0.8779;1.1345;-0.0631;0.5223;-0.4143;-0.7505;6;9.7477;1.5068;1.2726;-0.0792;1.0907;0.3491;-1.2116;-0.1051;-0.1159;1;0;
36;0;-0.7445;2.1171;9.4957;0.2212;-0.3544;0.0510;-0.2910;0.3337;-0.7418;1;1.1600;2.6095;9.5043;-1.0050;1.2555;-0.2167;0.5163;-0.4323;-0.7445;6;9.4006;0.9382;0.8653;0.0455;1.0599;0.3759;-1.1802;-0.1051;-0.1508;1;0;
37;0;-0.7436;2.2331;9.5526;0.3766;-0.3532;0.1414;-0.2698;0.3347;-0.6904;1;1.1628;2.8979;9.6813;-1.0359;1.2551;-0.2165;0.5103;-0.4143;-0.7325;6;10.1983;0.9373;1.0516;-0.0090;0.7212;0.6513;-1.1954;-0.0856;-0.1149;1;0;
38;0;-0.3235;2.3500;9.5002;0.1945;-0.2026;0.2084;-0.3064;0.2973;-0.7272;1;1.1070;2.6682;9.7377;-0.7859;1.1667;-0.0331;0.5043;-0.4203;-0.7265;6;10.0290;0.9945;1.1058;-0.0265;0.8063;1.0827;-1.1966;-0.1435;-0.1346;1;0;
39;0;-0.8646;1.9422;9.4958;0.0073;-0.3575;0.2689;-0.2696;0.2769;-0.7257;1;1.6107;2.6070;9.1030;-0.6040;1.2598;-0.1883;0.5043;-0.4143;-0.7385;6;9.9669;1.1080;0.8186;0.0923;0.7173;0.9248;-1.1805;-0.1243;-0.1514;1;0;
40;0;-0.1486;2.6453;9.2077;0.1336;-0.1728;0.2406;-0.3072;0.3162;-0.7266;1;1.2199;2.3799;9.6215;-0.6342;1.2286;-0.1880;0.5103;-0.4143;-0.7325;6;9.5716;1.1655;0.9259;0.1352;0.6203;1.3222;-1.1646;-0.1055;-0.1860;1;0;
41;0;-0.3816;2.4070;9.6152;-0.0864;-0.4195;0.2688;-0.2516;0.3534;-0.6720;1;1.2701;2.6658;9.2724;-0.6664;1.2583;-0.2801;0.5163;-0.4083;-0.7505;6;9.8593;1.3928;1.1602;0.1170;0.4924;1.7519;-1.1810;-0.1254;-0.2047;1;0;
42;0;-0.3210;2.8731;9.6688;-0.1143;-0.3596;0.4549;-0.2691;0.3158;-0.6910;1;1.1015;2.6669;9.4448;-0.7595;1.3519;-0.0958;0.5223;-0.4143;-0.7205;6;9.9077;0.5393;0.6455;-0.2851;0.6140;1.7649;-1.1952;-0.0853;-0.0972;1;0;
43;0;-0.2623;2.4076;9.5589;0.0063;-0.5109;0.4194;-0.2863;0.2977;-0.6926;1;1.0398;2.6660;9.2094;-0.7872;1.1967;-0.1254;0.5103;-0.4143;-0.7385;6;9.7504;0.9950;1.3867;-0.0726;0.7684;1.6062;-1.1639;-0.0856;-0.1498;1;0;
44;0;-0.3880;2.4114;9.2648;0.0702;-0.4804;0.5730;-0.2853;0.2983;-0.6759;1;1.2147;2.8390;9.3892;-0.5980;1.0452;-0.0027;0.5103;-0.4203;-0.7385;6;9.7403;0.7102;0.8142;-0.2383;0.8953;1.2434;-1.1653;-0.1439;-0.1872;1;0;
45;0;-0.1431;2.4665;9.5019;0.0710;-0.5115;0.6954;-0.2686;0.3548;-0.6563;1;1.2145;2.3211;9.3283;-0.7845;1.1049;-0.0327;0.5103;-0.4143;-0.7265;6;9.7999;0.9946;0.9871;-0.1538;0.8993;0.9644;-1.1803;-0.1055;-0.1686;1;0;
46;0;-0.6781;2.2294;9.8457;0.2207;-0.8156;0.7176;-0.3082;0.3156;-0.7434;1;1.2088;2.4348;9.0359;-0.6322;1.1677;-0.0954;0.5103;-0.4083;-0.7325;6;9.9123;0.9945;0.9320;-0.0256;0.8059;1.1134;-1.2128;-0.1445;-0.1704;1;0;
47;0;-0.8648;2.0589;9.4943;0.3749;-0.9062;0.8368;-0.3074;0.2967;-0.7440;1;1.3313;2.3214;9.4477;-0.8194;1.2582;-0.1256;0.5163;-0.4023;-0.7325;6;9.5110;0.9379;0.6957;0.2702;0.8894;1.6583;-1.2112;-0.0487;-0.1674;1;0;
48;0;-0.4355;2.4027;9.9645;0.0626;-1.1540;0.8968;-0.3046;0.2791;-0.7110;1;0.9875;2.3220;9.4411;-0.9136;1.3185;-0.1869;0.5163;-0.4023;-0.7205;6;9.5200;1.2226;1.2110;0.2156;1.1298;1.8770;-1.1961;-0.1055;-0.1511;1;0;
49;0;-0.9878;2.4691;9.3703;-0.2458;-1.2804;1.1440;-0.3062;0.3168;-0.7098;1;0.8692;2.5515;9.2642;-0.7921;1.3810;-0.2494;0.5223;-0.4083;-0.7325;6;9.6887;0.7674;1.0993;0.4330;1.3733;1.8724;-1.2429;-0.0863;-0.0981;1;0;
50;0;-0.5042;2.4670;9.4955;-0.2452;-1.1268;0.9628;-0.3234;0.2987;-0.7115;1;1.0521;2.5538;9.8533;-1.1350;1.5633;-0.2177;0.5223;-0.4143;-0.7385;6;9.1786;1.1093;1.1474;0.6487;1.6482;1.8067;-1.2418;0.0085;-0.1484;1;0;
51;0;-0.3238;2.5835;9.4972;-0.2711;-0.7908;0.9089;-0.2892;0.3154;-0.7256;1;1.2199;2.3799;9.6215;-1.2262;1.4370;-0.4008;0.5103;-0.3963;-0.7325;6;9.4014;1.1088;0.9227;0.8486;1.9914;1.2197;-1.2277;-0.0873;-0.1689;1;0;
52;0;-0.8069;2.1770;9.3771;-0.3612;-0.6390;0.9133;-0.3090;0.3345;-0.7428;1;1.0479;2.4377;9.6184;-1.3776;1.3753;-0.2152;0.5283;-0.3963;-0.7265;6;9.4085;0.4267;1.2655;1.1884;2.0528;1.1793;-1.1629;-0.0466;-0.1131;1;0;
53;0;-0.4483;2.4698;9.2630;-0.1152;-0.6053;0.7572;-0.2863;0.2977;-0.6926;1;1.1624;2.4950;9.6209;-1.1885;1.1920;-0.1845;0.5163;-0.4203;-0.7205;6;9.6888;0.7105;1.0993;0.6766;2.1677;1.6564;-1.1954;-0.0671;-0.1499;1;0;
54;0;-0.6835;2.2914;9.5530;-0.1156;-0.4514;0.4837;-0.2892;0.3154;-0.7256;1;1.1027;2.6096;9.5032;-1.1601;1.2209;-0.4307;0.5043;-0.4023;-0.7145;6;9.6837;0.5966;0.8130;-0.1726;1.7934;2.2934;-1.1805;-0.1243;-0.1514;1;0;
55;0;-0.7448;2.3506;9.4928;-0.0208;-0.3282;0.4852;-0.2706;0.3536;-0.6898;1;1.2165;2.4367;9.4460;-1.0026;1.1633;-0.1547;0.5163;-0.4143;-0.7325;6;9.8518;0.6531;0.7017;-1.3589;1.6003;3.0341;-1.1631;-0.0469;-0.1308;1;0;
56;0;-0.4473;2.5275;9.3207;-0.1134;-0.3600;0.5472;-0.2343;0.2942;-0.7231;1;1.1608;2.7823;9.5636;-0.6291;1.0128;-0.1253;0.5103;-0.4083;-0.7265;6;9.6243;1.0515;0.6979;-2.0548;1.0439;3.6343;-1.2122;-0.1062;-0.1692;1;0;
57;0;-0.4426;2.2327;9.5579;-0.7017;-0.3960;0.4615;-0.3260;0.3359;-0.7271;1;0.8146;2.9549;9.4406;-0.3807;0.9541;-0.0649;0.5223;-0.4023;-0.7325;6;10.0239;0.8805;0.8195;-2.8117;0.8063;3.2248;-1.2439;-0.1253;-0.1349;1;0;
58;0;-0.5634;2.5247;9.5521;-0.5153;-0.2716;0.3696;-0.2884;0.2965;-0.7262;1;1.2217;2.6105;9.7397;-0.1939;0.8947;-0.0042;0.5043;-0.4203;-0.7325;6;9.9062;0.8805;0.5885;-3.2738;0.6367;2.3154;-1.2127;-0.1442;-0.1527;1;0;
59;0;-0.1444;2.6423;9.4413;-0.2382;-0.2992;0.3348;-0.2889;0.3349;-0.7082;1;1.2113;2.8957;9.2137;-0.3168;0.8623;-0.0340;0.5163;-0.3963;-0.7325;6;9.6945;0.3127;1.3851;-3.6382;0.2210;1.5856;-1.2122;-0.1062;-0.1692;1;0;
60;0;-0.1432;2.5249;9.5012;-0.4018;-0.7891;0.2340;-0.2879;0.3355;-0.6914;1;0.9921;2.8984;9.7366;-0.3782;0.8619;-0.0029;0.5223;-0.4083;-0.7445;6;10.1379;0.4823;0.8213;-3.6234;-0.1676;1.0904;-1.1796;-0.0856;-0.1324;1;0;
61;0;-0.4999;2.4057;9.7299;-0.9002;-0.9462;0.0830;-0.2502;0.2962;-0.6906;1;1.0382;2.3204;9.0907;-0.4419;0.9540;-0.0031;0.5223;-0.4083;-0.7325;6;9.7435;0.7104;0.9859;-3.7840;-0.2259;0.9103;-1.2267;-0.0483;-0.1321;1;0;
62;0;-0.5078;2.0030;9.2678;-0.6543;-1.0970;0.1997;-0.3244;0.2981;-0.7282;1;0.7029;2.5531;9.5538;-0.2243;0.8632;-0.0346;0.5283;-0.4083;-0.7265;6;9.6245;0.9378;0.6978;-3.8217;-0.2533;0.6961;-1.2267;-0.0668;-0.0972;1;0;
63;0;-0.2025;2.6409;9.5570;-0.9284;-1.0399;0.4812;-0.2675;0.2781;-0.6922;1;1.2123;2.9535;9.2726;-0.4406;0.8604;-0.0947;0.5103;-0.4083;-0.7445;6;9.5207;0.6540;1.2106;-4.0080;0.1736;0.6437;-1.1951;-0.0480;-0.1493;1;0;
64;0;-0.6236;2.5248;9.5511;-0.6477;-0.6998;0.2082;-0.2876;0.2777;-0.7268;1;1.5618;2.2063;9.5102;-0.4692;0.7994;0.0287;0.5163;-0.4143;-0.7445;6;9.4016;0.9951;0.9226;-3.8317;0.4524;0.3026;-1.2108;-0.0480;-0.1318;1;0;
65;0;-0.6712;2.6328;10.2494;-0.6634;0.2471;0.1675;-0.2502;0.2962;-0.6906;1;1.5589;2.6084;9.3948;-0.5025;0.8277;-0.2171;0.5163;-0.4143;-0.7385;6;9.6882;1.1655;1.0996;-3.5508;0.8781;0.3284;-1.2277;-0.0873;-0.1689;1;0;
66;0;-0.4985;2.1715;9.7912;-0.2936;0.5896;-0.4448;-0.2892;0.3154;-0.7256;1;0.9888;2.8977;9.5608;-0.8664;0.6093;-0.0293;0.5043;-0.4083;-0.7445;6;9.9121;1.1651;0.9321;-3.1177;1.0918;0.2864;-1.1958;-0.0678;-0.1854;1;0;
67;0;-0.5639;2.1169;9.4989;-0.8830;0.4924;-0.5318;-0.3062;0.3168;-0.7098;1;1.1007;2.4941;9.3855;-0.8928;0.4241;0.0334;0.5103;-0.4023;-0.7445;6;9.7975;1.2220;0.8728;-3.0414;1.1765;0.7457;-1.1952;-0.0483;-0.1670;1;0;
68;0;-0.7463;2.7015;9.4300;-1.2230;0.3968;-0.4066;-0.3062;0.3168;-0.7098;1;1.2137;2.7812;9.3304;-0.8927;0.3608;-0.1198;0.5283;-0.4203;-0.7265;6;9.8536;0.8807;0.8164;-3.5518;1.1689;1.2833;-1.1798;-0.0860;-0.1502;1;0;
69;0;-0.6220;2.1155;9.6146;-0.6962;0.5245;-0.4412;-0.2691;0.3158;-0.6910;1;0.9298;2.5522;9.4410;-2.1875;0.3158;-0.2041;0.5223;-0.4203;-0.7565;6;9.8499;0.5393;0.5872;-3.9387;1.0236;0.8020;-1.2116;-0.0866;-0.1508;1;0;
70;0;-0.2704;2.1216;9.0954;-0.1373;0.6827;-0.4140;-0.2711;0.3146;-0.7245;1;1.2226;2.7258;9.7988;-1.6062;0.5067;-0.2702;0.5163;-0.4083;-0.7385;6;10.1407;0.7668;0.9932;-4.2377;0.8196;0.1641;-1.1805;-0.1058;-0.1863;1;0;
71;0;-0.4479;2.1780;9.2667;-0.2925;0.5584;-0.2918;-0.2889;0.3349;-0.7082;1;1.1591;2.4943;9.4452;-2.0619;0.3200;0.1024;0.5163;-0.4083;-0.7205;6;9.7478;0.5399;1.2147;-4.5426;0.5126;0.3551;-1.2272;-0.0863;-0.1156;1;0;
72;0;-0.3233;2.1749;9.5024;-0.0789;0.3463;-0.2068;-0.2701;0.3152;-0.7078;1;1.2875;2.7850;10.2102;-1.2334;0.3871;-0.2409;0.5103;-0.4083;-0.7385;6;9.8565;1.1083;0.9883;-4.7651;0.1495;0.2052;-1.1956;-0.0675;-0.1677;1;0;
73;0;-0.2624;2.4659;9.5582;-0.1083;0.3147;-0.0226;-0.2186;0.3500;-0.7203;1;1.5700;2.5534;9.9803;-1.2003;0.2949;-0.2098;0.5163;-0.4083;-0.7325;6;10.1386;1.5629;0.9366;-4.8130;0.1269;-0.3466;-1.1956;-0.0675;-0.1677;1;0;
74;0;-0.9213;2.4646;9.7217;-0.2078;-0.0526;-0.0908;-0.2918;0.3526;-0.7412;1;0.9273;2.7242;9.3246;-1.0162;0.3274;-0.2418;0.5283;-0.4143;-0.7445;6;9.4129;1.1093;1.5522;-4.4285;0.1050;-0.9421;-1.1966;-0.1250;-0.1695;1;0;
75;0;-0.3831;1.9416;9.5043;-0.3899;0.0980;-0.0237;-0.3043;0.2985;-0.6937;1;1.1082;2.6109;9.7961;-0.5557;0.4885;-0.0611;0.5043;-0.4083;-0.7385;6;10.0838;0.8237;0.9922;-4.0390;0.7817;-1.4400;-1.1802;-0.0867;-0.1857;1;0;
76;0;-0.4475;2.7026;9.3185;-0.5143;0.0663;-0.0536;-0.2335;0.2753;-0.7237;1;1.3314;2.8968;9.5088;-0.2166;0.4919;-0.0631;0.5103;-0.4143;-0.7265;6;9.5258;0.7110;1.4968;-3.6450;1.0760;-0.7427;-1.1966;-0.1250;-0.1695;1;0;
77;0;-0.4953;2.1693;9.9664;-0.4834;0.0052;0.0369;-0.2510;0.3150;-0.6900;1;1.1572;2.9541;9.3886;-0.2148;0.4307;-0.0013;0.5103;-0.4083;-0.7325;6;9.6266;0.8810;0.8122;-3.3791;1.4943;-0.1942;-1.1798;-0.0860;-0.1502;1;0;
78;0;-0.6227;1.8828;9.5592;-0.3862;0.2195;0.1326;-0.2683;0.2969;-0.6916;1;1.4494;2.8399;9.6865;-0.5269;0.5815;-0.0618;0.5163;-0.4083;-0.7385;6;9.5726;1.1655;0.9831;-3.4003;1.9164;0.0863;-1.2281;-0.0880;-0.2045;1;0;
79;0;-0.5645;2.5254;9.4937;-0.1373;0.4059;0.0105;-0.3051;0.3174;-0.6931;1;0.7566;2.7247;9.3799;-0.7458;0.6388;-0.3067;0.5163;-0.4083;-0.7325;6;9.8600;0.7672;1.1597;-3.3690;2.0382;0.0864;-1.1949;-0.0291;-0.1664;1;0;
80;0;-0.5085;2.5283;9.2612;-0.3270;0.2212;-0.1141;-0.2876;0.2777;-0.7268;1;1.0479;2.4377;9.6184;-0.4983;0.6743;-0.0933;0.5163;-0.4083;-0.7445;6;9.6390;0.9953;1.4991;-3.4334;2.1612;-0.0029;-1.1954;-0.0671;-0.1499;1;0;
81;0;-0.3215;2.4069;9.6162;-0.1986;0.5896;-0.2308;-0.2680;0.3164;-0.6742;1;1.5037;2.6665;9.5111;-0.7119;0.5479;-0.1527;0.5103;-0.4083;-0.7325;6;9.8497;0.7099;0.5873;-3.3543;2.2591;-0.4654;-1.1954;-0.0487;-0.1848;1;0;
82;0;-0.6901;2.5293;9.1996;-0.1363;0.6823;-0.3218;-0.2863;0.2977;-0.6926;1;1.2149;2.7240;9.3887;-0.7396;0.4245;-0.0904;0.5103;-0.4143;-0.7325;6;10.0866;1.1082;1.1641;-3.5170;1.8360;-0.6790;-1.2112;-0.0487;-0.1674;1;0;
83;0;-0.8660;2.1764;9.4345;-0.2302;0.5896;-0.2919;-0.2719;0.3335;-0.7240;1;1.0429;2.7818;9.3857;-0.6163;0.4575;0.0009;0.5103;-0.4083;-0.7265;6;9.6302;1.3930;1.0415;-3.8994;1.6277;-1.0073;-1.2276;-0.0870;-0.1511;1;0;
84;0;-0.3839;2.5252;9.4969;-0.3509;0.6794;-0.1654;-0.3059;0.3363;-0.6925;1;1.2130;2.5509;9.2708;-0.2463;0.4613;-0.0013;0.5163;-0.4143;-0.7265;6;9.9682;0.8237;0.8757;-3.7132;1.4752;-0.9833;-1.2270;-0.0675;-0.1328;1;0;
85;0;-0.0824;2.1163;9.5073;-0.1954;0.6498;-0.0142;-0.2915;0.3721;-0.7238;1;1.4997;2.4354;9.2758;0.0671;0.2804;0.1516;0.5163;-0.4143;-0.7445;6;9.6927;0.9382;1.3284;-3.4634;1.2609;-0.9003;-1.2122;-0.1062;-0.1692;1;0;
86;0;-0.6814;2.2899;9.6698;-0.3504;0.5561;0.0780;-0.2340;0.3136;-0.7057;1;1.2140;2.6087;9.3296;0.0638;0.4350;0.1507;0.5103;-0.4263;-0.7265;6;9.8022;0.7673;1.1014;-3.1016;1.1741;-1.2191;-1.2422;-0.0479;-0.0969;1;0;
87;0;-0.2032;2.4082;9.5016;-0.1600;0.8020;0.1732;-0.3062;0.3168;-0.7098;1;1.3906;3.0698;9.6279;0.3762;0.3480;0.4259;0.5103;-0.4083;-0.7385;6;10.2532;0.7097;0.9380;-2.3640;1.2379;-1.4251;-1.2113;-0.0675;-0.1502;1;0;
88;0;-0.6274;2.1775;9.3219;-0.1945;0.6802;0.0172;-0.3106;0.3723;-0.7416;1;1.4929;2.5489;8.9248;0.5602;0.3488;0.3019;0.5103;-0.4083;-0.7505;6;9.7467;0.6536;1.1575;-1.9401;1.2120;-1.7452;-1.1967;-0.1438;-0.1523;1;0;
89;0;-0.6890;2.4702;9.2588;-0.3183;0.6482;0.0488;-0.2724;0.3719;-0.7060;1;0.9879;2.7249;9.5015;0.9620;0.3858;0.5145;0.5103;-0.4143;-0.7325;6;9.6816;1.5064;0.7565;-1.6877;1.2099;-1.5991;-1.1788;-0.0469;-0.1134;1;0;
90;0;-0.5007;2.2313;9.6737;-0.1611;0.8332;0.0201;-0.3033;0.2991;-0.6769;1;1.4438;2.8961;9.3939;0.6550;0.3208;0.5166;0.5223;-0.3963;-0.7205;6;9.7478;0.5968;1.2147;-1.4509;1.3530;-0.9598;-1.2433;-0.0685;-0.1686;1;0;
91;0;-0.5037;2.0584;9.5007;-0.2270;0.5267;0.1065;-0.3062;0.3168;-0.7098;1;0.8196;2.5534;9.6731;0.7444;0.4449;0.4539;0.4923;-0.4023;-0.7385;6;9.5218;0.5971;1.2678;-1.1925;1.1652;-0.6003;-1.2270;-0.0675;-0.1328;1;0;
92;0;-0.4993;1.9972;9.7350;-0.4724;0.6465;0.0815;-0.3260;0.3359;-0.7271;1;1.2723;2.6663;9.3896;0.1897;0.4395;0.4879;0.5404;-0.4143;-0.7325;6;9.5788;1.2795;1.3266;-0.7888;1.5610;-0.6092;-1.2118;-0.0870;-0.1686;1;0;
93;0;-0.6882;1.8865;9.2661;-0.2614;0.3126;0.1023;-0.2685;0.2775;-0.7090;1;1.6203;2.7818;9.6310;0.4667;0.4417;0.4248;0.5103;-0.4083;-0.7445;6;9.7385;0.5395;0.6996;-0.1449;1.3813;-0.8143;-1.2116;-0.0866;-0.1508;1;0;
94;0;0.2786;2.1741;9.5130;-0.3203;0.3722;0.2889;-0.2327;0.3337;-0.6716;1;1.5039;2.5515;9.5106;0.1852;0.6244;0.4254;0.5163;-0.4143;-0.7385;6;9.7478;0.5399;1.2147;0.3441;1.7806;-1.0715;-1.2274;-0.0682;-0.1683;1;0;
95;0;-0.6824;2.2907;9.6114;0.0458;0.1010;0.2784;-0.3067;0.3552;-0.6919;1;1.5600;2.6086;9.4534;0.3125;0.4402;0.4258;0.5103;-0.3963;-0.7265;6;9.9641;0.8236;0.6467;0.5559;1.7220;-1.2320;-1.1795;-0.0483;-0.1845;1;0;
96;0;-0.7443;2.0004;9.4972;-0.2016;-0.0552;0.4934;-0.2737;0.3518;-0.7401;1;1.2159;2.7817;9.4476;0.0931;0.5286;0.2114;0.5103;-0.4023;-0.7385;6;9.6900;0.5968;1.1564;0.8560;1.9704;-1.5770;-1.1783;-0.0274;-0.0950;1;0;
97;0;-0.0813;2.0572;9.5665;-0.1705;0.1297;0.2202;-0.2698;0.3347;-0.6904;1;1.1599;2.6671;9.5045;0.0577;0.7447;0.2103;0.5163;-0.4083;-0.7385;6;9.9157;0.7671;1.1035;1.1337;2.3062;-1.6441;-1.1795;-0.0668;-0.1496;1;0;
98;0;-0.4439;2.4085;9.4973;-0.1702;0.1910;0.1601;-0.2889;0.3349;-0.7082;1;1.2735;2.6091;9.4479;-0.3436;0.7401;0.1513;0.5103;-0.4023;-0.7325;6;9.1829;0.9957;1.3763;0.9915;2.4221;-1.2394;-1.1959;-0.1051;-0.1333;1;0;
99;0;-0.7461;2.5264;9.4322;0.1969;-0.0191;0.1509;-0.2884;0.2965;-0.7262;1;1.0356;2.5499;8.9746;-0.3478;0.9252;0.1195;0.5223;-0.4083;-0.7265;6;9.8074;0.8243;1.3876;1.0537;2.5135;-1.2406;-1.2118;-0.0870;-0.1686;1;0;
100;0;-0.6273;2.1192;9.3226;0.2224;-0.3241;0.1132;-0.2879;0.3355;-0.6914;1;1.1569;2.4937;9.3280;-0.7522;1.0118;-0.0938;0.5283;-0.4143;-0.7385;6;9.6923;0.4263;1.2708;1.2719;2.3909;-1.1866;-1.2435;-0.0689;-0.1864;1;0;
101;0;-0.4387;2.4049;9.7893;0.5846;-0.6860;-0.1145;-0.2523;0.2950;-0.7241;1;1.5002;2.1478;9.2745;-0.8502;1.2579;-0.1254;0.5223;-0.4083;-0.7265;6;9.2914;0.8248;1.0921;1.6669;2.3801;-0.4303;-1.1956;-0.0675;-0.1677;1;0;
102;0;-0.7481;2.4695;9.3161;-0.0629;-0.7238;0.0466;-0.2868;0.3361;-0.6747;1;1.5048;2.6667;9.5697;-0.8214;1.3192;-0.2181;0.5343;-0.4083;-0.7325;6;9.4649;0.7109;1.2668;1.7180;2.2183;0.2429;-1.1956;-0.0860;-0.1327;1;0;
103;0;0.0346;2.2350;9.3328;0.1831;-0.6901;-0.1095;-0.3051;0.3174;-0.6931;1;1.3882;2.5514;9.4498;-1.1327;1.5027;-0.0945;0.5103;-0.4143;-0.7325;6;9.3389;0.7106;0.5779;1.6035;2.1835;0.5533;-1.2117;-0.0682;-0.1858;1;0;
104;0;-0.3772;2.2290;9.8510;-0.2442;-0.3274;-0.1886;-0.2714;0.2952;-0.7419;1;0.9912;2.7256;9.6772;-0.7248;1.2300;0.0584;0.5223;-0.4203;-0.7265;6;9.6946;1.0520;1.4429;1.5713;2.0926;0.5228;-1.1954;-0.0671;-0.1499;1;0;
105;0;-0.6224;2.4073;9.6110;-0.1473;-0.1129;-0.1236;-0.2701;0.3152;-0.7078;1;1.5645;2.5521;9.6874;-0.6871;0.9533;0.1827;0.5223;-0.4143;-0.7265;6;9.6901;0.4831;1.1563;1.2004;2.0007;0.5639;-1.1959;-0.0867;-0.1683;1;0;
106;0;-0.4413;2.0569;9.6185;-0.3300;0.0071;-0.0572;-0.2850;0.3178;-0.6585;1;1.7340;2.6664;9.5741;-0.3148;0.8013;0.0585;0.5223;-0.4083;-0.7265;6;9.9716;0.6533;1.0472;0.9199;2.0015;0.5109;-1.1632;-0.0473;-0.1486;1;0;
107;0;-0.3236;2.4084;9.4994;-0.1099;0.3153;-0.1763;-0.2871;0.3166;-0.6920;1;1.3983;2.4387;9.9765;-0.4041;0.7091;0.2133;0.5103;-0.4083;-0.7205;6;10.4125;0.3109;0.3113;0.4562;1.9096;0.5547;-1.1803;-0.1055;-0.1686;1;0;
108;0;-0.8609;2.2894;9.7250;-0.2043;0.2536;-0.2380;-0.2525;0.2755;-0.7415;1;1.3362;2.6678;9.7421;-0.2808;0.7104;0.2125;0.5223;-0.4023;-0.7385;6;9.9114;0.8807;0.8747;-0.1630;1.5741;0.6013;-1.1802;-0.1051;-0.1508;1;0;
109;0;-0.6221;2.1739;9.6139;-0.2310;0.4053;-0.0806;-0.2549;0.3321;-0.7397;1;1.2193;2.0921;9.5616;-0.2764;0.5573;0.3671;0.5163;-0.4023;-0.7445;6;9.8600;0.7672;1.1597;-0.6640;1.2718;0.4602;-1.1956;-0.0860;-0.1327;1;0;
110;0;-0.8073;2.4689;9.3734;-0.1703;0.2834;0.0083;-0.3216;0.2804;-0.6953;1;1.6171;2.7235;9.4550;0.0598;0.6205;0.1496;0.5103;-0.4083;-0.7205;6;9.7424;0.7103;0.9286;-0.9476;0.8778;0.3427;-1.1797;-0.0672;-0.1673;1;0;
111;0;-0.3835;2.2334;9.5006;-0.2312;0.3746;-0.0505;-0.2691;0.3158;-0.6910;1;1.3848;2.6081;9.2743;0.2153;0.5920;0.2410;0.5223;-0.4083;-0.7385;6;9.8509;0.5962;0.6445;-1.2103;0.5800;-0.1128;-1.1957;-0.0863;-0.1505;1;0;
112;0;-0.5043;2.5254;9.4948;-0.3217;0.4036;0.1051;-0.3077;0.3546;-0.7087;1;1.3307;2.6665;9.4492;0.2180;0.4684;0.2418;0.5223;-0.4203;-0.7445;6;9.6849;1.3360;0.9281;-0.9420;0.5849;-0.4588;-1.1796;-0.0856;-0.1324;1;0;
113;0;-0.2674;2.2361;9.2691;-0.4128;0.5558;0.0172;-0.2701;0.3152;-0.7078;1;1.5023;2.8388;9.4533;0.1544;0.5923;0.3336;0.5343;-0.4083;-0.7385;6;9.5667;0.8809;0.6395;-0.6474;0.5920;-0.9592;-1.1959;-0.0867;-0.1683;1;0;
114;0;-0.7473;2.6439;9.3723;-0.4416;0.7392;-0.0707;-0.2868;0.3361;-0.6747;1;0.8743;2.1499;9.4967;0.2484;0.4681;0.1801;0.5103;-0.4083;-0.7325;6;9.5738;1.1087;1.0403;-0.4125;0.7200;-1.3954;-1.1961;-0.1055;-0.1511;1;0;
115;0;-0.5137;2.4736;8.9699;-0.4752;0.5554;-0.0435;-0.3098;0.3534;-0.7422;1;1.2160;2.7242;9.4473;0.1259;0.4362;0.2118;0.5103;-0.4023;-0.7145;6;9.6349;0.9382;1.2701;0.0558;0.7793;-1.2860;-1.1958;-0.0678;-0.1854;1;0;
116;0;-0.5603;2.5809;9.7266;-0.3805;0.6171;0.0489;-0.2688;0.3353;-0.6736;1;0.9353;2.5535;9.7339;-0.0925;0.5895;0.3043;0.5103;-0.4083;-0.7325;6;9.6856;0.7673;0.9276;-0.0628;0.9292;-1.1276;-1.2428;-0.0490;-0.1502;1;0;
117;0;-0.2041;1.5342;9.3958;-0.1644;0.5578;0.1372;-0.3260;0.3359;-0.7271;1;1.3814;2.6649;9.0989;-0.0291;0.5289;0.3658;0.5103;-0.4083;-0.7445;6;9.4621;1.2795;1.1528;-0.0108;1.0862;-1.4659;-1.2269;-0.0486;-0.1499;1;0;
118;0;-0.7424;2.1740;9.6118;-0.0450;0.3454;0.0696;-0.2345;0.3520;-0.6878;1;0.9849;2.5515;9.3250;0.0598;0.5887;0.0576;0.5043;-0.4083;-0.7265;6;9.7440;1.1085;1.0434;0.0816;1.2389;-1.4982;-1.1956;-0.0675;-0.1677;1;0;
119;0;-0.5033;1.8250;9.5036;-0.1033;0.4356;0.2568;-0.2696;0.2769;-0.7257;1;1.1585;2.8393;9.4467;-0.1892;0.7737;0.2731;0.5223;-0.4143;-0.7385;6;9.8654;1.4499;1.5036;0.2446;1.4484;-1.2556;-1.2111;-0.0671;-0.1324;1;0;
120;0;-0.3807;2.4646;9.6729;0.1655;-0.0499;0.1506;-0.2709;0.3341;-0.7072;1;1.4986;2.4351;9.2172;-0.2527;0.8025;0.1196;0.5163;-0.4083;-0.7445;6;9.5689;0.8241;0.7539;0.5917;1.4455;-1.0509;-1.1951;-0.0480;-0.1493;1;0;
121;0;-0.6221;2.2322;9.6132;-0.0791;0.0388;0.2479;-0.2675;0.3554;-0.6395;1;0.8160;2.7827;9.4984;-0.1617;0.8650;0.0880;0.5223;-0.4023;-0.7325;6;9.6958;0.9383;1.5001;1.1174;1.5679;-1.0964;-1.1795;-0.0668;-0.1496;1;0;
122;0;-0.6257;1.7099;9.3862;0.0763;0.0400;0.3382;-0.2887;0.3544;-0.6909;1;0.9298;2.5522;9.4410;-0.4370;0.7697;0.1209;0.5223;-0.4263;-0.7325;6;9.0709;1.4509;1.4890;1.5468;1.7833;-1.2611;-1.1954;-0.0671;-0.1499;1;0;
123;0;-0.8646;1.9422;9.4958;-0.0145;0.1306;0.3721;-0.2879;0.3355;-0.6914;1;1.6216;2.6671;9.6891;-0.6270;0.9837;0.0593;0.5163;-0.4023;-0.7325;6;9.7934;1.1650;0.6439;1.5693;1.7872;-1.5383;-1.1810;-0.1438;-0.1698;1;0;
124;0;-0.3856;2.1765;9.3845;-0.3524;0.2186;0.4090;-0.3077;0.3546;-0.7087;1;1.2126;2.7810;9.2718;-0.7502;0.9509;-0.0013;0.5163;-0.4023;-0.7205;6;9.5208;1.3933;1.2684;1.5384;2.1224;-1.5655;-1.1469;-0.0090;-0.1648;1;0;
125;0;-0.3859;2.4099;9.3816;-0.1700;0.2217;0.1300;-0.2539;0.3327;-0.7229;1;1.3923;2.7250;9.6849;-0.5652;0.9528;-0.0024;0.5163;-0.4023;-0.7445;6;9.8654;1.5068;1.5036;1.4779;2.2741;-1.5317;-1.2117;-0.0497;-0.2207;1;0;
126;0;-0.3857;2.2932;9.3831;-0.2934;0.1896;0.1923;-0.2541;0.3132;-0.7403;1;1.5057;2.7820;9.6288;-0.4749;1.0780;0.0578;0.5223;-0.4023;-0.7505;6;9.6793;0.7670;0.5842;1.0793;2.3026;-1.3966;-1.2112;-0.0487;-0.1674;1;0;
127;0;-0.8015;2.1150;9.6698;-0.0165;0.2237;0.0358;-0.2560;0.4088;-0.7038;1;0.9859;2.6093;9.3838;-0.8140;1.0427;-0.0322;0.5163;-0.4083;-0.7385;6;9.3515;0.5973;1.2646;0.8353;1.9656;-1.2384;-1.2118;-0.0870;-0.1686;1;0;
128;0;-0.9809;2.0562;9.7258;-0.1737;0.0387;0.0645;-0.2873;0.2971;-0.7094;1;1.2124;2.8960;9.2723;-0.7530;1.1061;0.0593;0.5343;-0.4203;-0.7445;6;9.9671;0.8806;0.8185;0.2602;1.9288;-0.7913;-1.1797;-0.0672;-0.1673;1;0;
129;0;-0.3813;2.1735;9.6181;-0.2040;-0.0234;0.2173;-0.2861;0.3172;-0.6753;1;1.3363;2.6103;9.7419;-0.6295;1.0440;-0.0947;0.5103;-0.4023;-0.7205;6;9.6377;1.2227;1.4420;-0.2178;1.4633;-0.1661;-1.1800;-0.0863;-0.1679;1;0;
130;0;-0.3864;2.7601;9.3772;-0.2663;-0.1161;0.3084;-0.2183;0.2922;-0.7556;1;1.0446;2.4369;9.4427;-0.5375;1.0444;-0.1567;0.5163;-0.4203;-0.7325;6;9.8566;0.9946;0.9882;-0.5327;1.2828;-0.3118;-1.1792;-0.0292;-0.1839;1;0;
131;0;-0.1398;2.4059;9.6778;-0.2039;0.0381;0.1264;-0.2840;0.3184;-0.6417;1;1.1526;2.4352;9.0934;-0.5339;0.9537;0.0589;0.5163;-0.4143;-0.7265;6;9.5203;0.9383;1.2108;-0.5404;0.8902;-0.5298;-1.1970;-0.1257;-0.2050;1;0;
132;0;-0.3919;2.1809;9.0341;-0.2331;0.1601;0.0987;-0.2894;0.2960;-0.7429;1;1.2216;2.6680;9.7399;-0.5630;0.8603;0.0289;0.5163;-0.4203;-0.7325;6;9.5730;0.8812;0.9829;-0.3948;0.9556;-0.8409;-1.1960;-0.0682;-0.2032;1;0;
133;0;-0.4427;2.2911;9.5572;-0.4486;0.2192;0.0719;-0.2507;0.2572;-0.7253;1;0.8653;2.2629;9.0286;-0.8058;0.7038;0.0927;0.5103;-0.4083;-0.7145;6;9.4592;1.1088;0.9810;-0.0980;0.7788;-1.2507;-1.1800;-0.0863;-0.1679;1;0;
134;0;-0.5039;2.2335;9.4985;-0.2629;0.2824;0.0094;-0.2709;0.3341;-0.7072;1;0.8155;2.3798;9.4380;-0.4944;0.5839;0.1531;0.5223;-0.4083;-0.7325;6;9.8610;0.8241;1.2170;0.1192;0.9615;-1.2557;-1.1799;-0.0675;-0.1851;1;0;
135;0;-0.5653;2.3511;9.4375;-0.2902;0.5574;-0.0765;-0.3250;0.3365;-0.7103;1;0.9386;2.5542;9.9097;-0.7107;0.6447;0.2769;0.4983;-0.4023;-0.7445;6;9.4675;1.1092;1.4388;0.0889;1.1745;-1.2531;-1.1952;-0.0483;-0.1670;1;0;
136;0;-0.1404;2.0565;9.6238;-0.3224;0.4962;-0.1082;-0.2541;0.3132;-0.7403;1;1.5099;2.8981;9.8636;-0.6186;0.6451;0.2149;0.5043;-0.4203;-0.7265;6;9.4032;1.3364;1.0373;0.2888;1.4727;-0.8265;-1.1643;-0.1048;-0.1505;1;0;
137;0;-0.5639;2.8749;9.5477;-0.3219;0.5267;-0.1076;-0.2500;0.3156;-0.6732;1;1.1622;2.6101;9.6214;-0.4987;0.7373;0.0293;0.5223;-0.4023;-0.7385;6;9.5151;0.9950;0.9247;0.5456;1.4076;-0.5274;-1.1482;-0.1041;-0.1324;1;0;
138;0;-1.1049;2.3503;9.5448;0.1106;0.4388;0.0389;-0.2871;0.3166;-0.6920;1;1.6146;2.8956;9.3386;-0.4993;0.8000;0.1211;0.5043;-0.4083;-0.7505;6;9.5779;1.1089;1.2692;0.6691;1.5907;-0.5604;-1.1959;-0.1051;-0.1333;1;0;
139;0;-0.6820;2.7568;9.6639;-0.3508;0.5871;-0.0136;-0.2338;0.3331;-0.6883;1;1.3847;2.6656;9.2746;-0.4066;0.8013;0.1513;0.5283;-0.4203;-0.7265;6;9.6316;1.0518;1.0985;1.0467;1.7403;-0.3861;-1.2270;-0.0675;-0.1328;1;0;
140;0;-0.4464;2.6435;9.3776;-0.2610;0.4354;-0.0488;-0.2332;0.2948;-0.7063;1;1.0965;3.0109;9.2121;-0.5304;0.7994;0.0905;0.5283;-0.4143;-0.7265;6;9.7548;0.8246;1.6155;0.9174;1.8038;-0.5661;-1.2277;-0.1058;-0.1340;1;0;
141;0;-0.6216;1.8237;9.6183;-0.2002;0.4365;-0.1418;-0.2520;0.3144;-0.7067;1;1.1625;3.0704;9.6821;-0.5654;0.9525;-0.0331;0.5103;-0.4203;-0.7205;6;9.5717;1.1086;0.9258;1.0398;1.9569;-0.6300;-1.2272;-0.0863;-0.1156;1;0;
142;0;-0.3229;1.8831;9.5060;-0.1982;0.4972;-0.0482;-0.2873;0.2971;-0.7094;1;1.1651;2.8409;9.7982;-0.7477;0.8587;0.0607;0.5103;-0.3963;-0.7325;6;9.7997;1.1084;0.9872;1.2736;1.7197;-1.0691;-1.1803;-0.1055;-0.1686;1;0;
143;0;-0.3869;2.4107;9.3232;-0.1381;0.2831;0.1309;-0.2871;0.3166;-0.6920;1;1.1029;2.4946;9.5026;-0.6592;1.0134;-0.0329;0.5043;-0.4143;-0.7445;6;9.9203;1.2792;1.3901;0.9607;1.8430;-1.1817;-1.1783;-0.0274;-0.0950;1;0;
144;0;-0.4999;2.4057;9.7299;-0.2317;0.2826;0.0398;-0.2719;0.3335;-0.7240;1;1.1561;2.3210;9.2686;-0.6872;0.8897;-0.0013;0.5163;-0.4143;-0.7385;6;9.6930;0.7107;1.3282;0.8302;1.8156;-1.3931;-1.1952;-0.0668;-0.1321;1;0;
145;0;-0.8091;2.2369;9.2596;-0.3823;0.4947;0.0770;-0.3074;0.2967;-0.7440;1;1.2260;2.6690;9.9743;-1.0263;0.9180;0.0927;0.5223;-0.4083;-0.7505;6;9.9701;1.0513;0.9903;0.3172;1.5654;-0.9188;-1.1640;-0.0672;-0.1848;1;0;
146;0;-1.0485;2.8194;9.3648;-0.1690;0.2828;0.1313;-0.2876;0.2777;-0.7268;1;1.4406;2.8378;9.2179;-0.8759;1.0736;0.0295;0.5223;-0.4083;-0.7265;6;9.5182;0.9951;1.0964;-0.0096;1.4674;-0.4489;-1.1956;-0.0675;-0.1677;1;0;
147;0;-0.2038;2.0588;9.4476;-0.2620;0.2820;0.1017;-0.2873;0.2971;-0.7094;1;1.1608;2.7823;9.5636;-0.7823;0.9806;-0.0934;0.5103;-0.4083;-0.7445;6;9.4048;0.8815;1.0942;-0.1565;1.2808;-0.1694;-1.1650;-0.1247;-0.1866;1;0;
148;0;-0.5651;2.1760;9.4397;-0.2333;0.1294;0.1288;-0.2698;0.3347;-0.6904;1;1.1024;2.7822;9.5039;-0.8172;1.1022;-0.2783;0.4983;-0.4203;-0.7505;6;9.5161;0.9950;0.9819;-0.5562;1.2489;-0.0656;-1.1636;-0.0665;-0.1492;1;0;
149;0;-0.4498;2.0628;9.1513;-0.2660;0.0991;0.0055;-0.2868;0.2588;-0.7273;1;1.6152;2.5505;9.3371;-0.7555;1.1346;-0.1867;0.5163;-0.4203;-0.7205;6;9.6872;1.1654;1.0424;-0.5202;1.3684;0.0880;-1.1803;-0.1055;-0.1686;1;0;
150;0;-0.3830;2.6412;9.5539;0.0081;-0.0503;-0.1242;-0.2502;0.2962;-0.6906;1;0.9875;3.0124;9.5028;-0.9705;1.0700;-0.2465;0.5163;-0.4023;-0.7385;6;9.6366;0.3696;1.3269;-0.8851;1.0604;0.3422;-1.1954;-0.0671;-0.1499;1;0;
151;0;-0.5019;2.2904;9.6145;-0.1742;0.0696;-0.0271;-0.2672;0.2975;-0.6748;1;1.0505;2.2082;9.7346;-0.8777;1.0712;-0.2163;0.5043;-0.4023;-0.7145;6;9.4630;1.4502;1.2101;-1.0984;1.2416;0.4423;-1.2273;-0.0493;-0.1855;1;0;
152;0;-0.2595;2.6388;9.7312;-0.1732;0.0692;0.0652;-0.3043;0.2985;-0.6937;1;1.2126;2.7810;9.2718;-0.7207;0.9812;-0.0938;0.5223;-0.4143;-0.7265;6;9.5749;1.0519;1.0975;-1.1892;1.3016;0.5069;-1.2439;-0.0696;-0.2219;1;0;
153;0;-0.3856;2.2348;9.3838;-0.3580;0.1594;-0.0228;-0.2348;0.3325;-0.7051;1;1.1624;2.4950;9.6209;-0.9724;1.2263;-0.0631;0.5043;-0.4023;-0.7325;6;9.7453;0.9379;1.1005;-1.1725;1.2473;0.0451;-1.1954;-0.0671;-0.1499;1;0;
154;0;-0.3803;2.1728;9.6765;-0.2972;0.0989;-0.0249;-0.2740;0.3323;-0.7575;1;1.1615;2.3798;9.5618;-1.0029;1.0994;-0.3694;0.5163;-0.4023;-0.7325;6;9.3995;0.9950;0.8081;-0.8341;1.4922;-0.0553;-1.2115;-0.0678;-0.1680;1;0;
155;0;-0.5062;2.4101;9.3795;0.0335;-0.3245;-0.2227;-0.3051;0.3174;-0.6931;1;1.3837;2.6079;9.2158;-1.0019;1.1006;-0.2465;0.5103;-0.4143;-0.7385;6;9.9154;1.0515;1.1037;-0.7098;1.3397;-0.0295;-1.2118;-0.0870;-0.1686;1;0;
156;0;-0.5614;2.5816;9.6682;0.1830;-0.5362;-0.3522;-0.3101;0.4112;-0.7069;1;1.3866;2.8387;9.3925;-1.2819;1.1581;-0.3988;0.5223;-0.4143;-0.7265;6;9.6327;0.9950;1.1557;-0.6444;1.2466;0.0907;-1.1328;-0.1048;-0.1854;1;0;
157;0;-0.6382;2.3600;8.7357;1.0960;-1.1672;-0.6542;-0.2709;0.3341;-0.7072;1;0.8117;2.6666;9.2636;-1.4743;1.5278;-0.3385;0.5163;-0.4203;-0.7385;6;9.8613;0.5398;1.2167;-0.1751;1.3055;0.2308;-1.1963;-0.1058;-0.1689;1;0;
158;0;-0.7452;2.6424;9.4891;0.4193;-1.1444;-0.4299;-0.2536;0.3522;-0.7056;1;1.5649;2.3221;9.6864;-1.4406;1.4048;-0.3072;0.5163;-0.4143;-0.7325;6;9.7444;0.7673;1.0431;-0.0242;1.5816;0.0748;-1.2120;-0.1058;-0.1514;1;0;
159;0;-1.3449;2.5834;9.5961;0.4174;-1.2975;-0.3717;-0.3240;0.3371;-0.6935;1;1.2112;2.9532;9.2140;-1.4169;1.6500;-0.5546;0.5163;-0.4143;-0.7325;6;9.4516;1.3928;0.5805;0.4966;1.9197;-0.1531;-1.2276;-0.0870;-0.1511;1;0;
160;0;-0.5620;2.2322;9.6142;0.0494;-1.3331;-0.0603;-0.2892;0.3154;-0.7256;1;1.0429;2.7818;9.3857;-1.4775;1.5873;-0.5846;0.5223;-0.4083;-0.7325;6;9.6895;0.9949;1.1567;0.6465;2.4706;-0.3683;-1.2115;-0.0678;-0.1680;1;0;
161;0;-0.7969;1.8786;9.9064;-0.2578;-1.2754;0.0063;-0.3067;0.2779;-0.7446;1;0.9305;2.7825;9.5006;-1.3859;1.6824;-0.4321;0.5103;-0.4083;-0.7445;6;9.1785;1.1662;1.1475;0.8039;3.0180;-0.3379;-1.1643;-0.1048;-0.1505;1;0;
162;0;-0.8037;2.1748;9.5523;-0.6241;-1.1579;0.2288;-0.2510;0.3150;-0.6900;1;1.1005;2.6091;9.3860;-1.2268;1.5315;-0.2170;0.5343;-0.4143;-0.7505;6;9.4006;0.8813;0.8653;0.5354;3.5618;-0.0490;-1.1644;-0.1052;-0.1682;1;0;
163;0;-0.6201;2.2891;9.7292;-0.8070;-0.9762;0.1735;-0.2889;0.3349;-0.7082;1;1.3374;2.6105;9.8005;-1.6314;1.6496;-0.3690;0.5163;-0.4143;-0.7205;6;9.5783;0.8245;1.2690;0.7615;3.8622;0.2232;-1.1963;-0.1058;-0.1689;1;0;
164;0;-0.3786;1.7635;9.7400;-0.3966;-0.2068;-0.1840;-0.3059;0.3363;-0.6925;1;1.0991;2.7814;9.3282;-1.2224;1.3148;-0.2465;0.5163;-0.4203;-0.7325;6;9.2899;1.2228;1.0351;1.0175;4.1327;0.4635;-1.2114;-0.1048;-0.0981;1;0;
165;0;-0.3858;2.3516;9.3823;0.1560;-0.1075;-0.6501;-0.2701;0.3152;-0.7078;1;1.6190;2.2062;9.5113;-1.5620;1.3425;-0.2139;0.5223;-0.4083;-0.7325;6;10.0842;0.5393;0.9920;1.0159;3.9201;0.4311;-1.2113;-0.0675;-0.1502;1;0;
166;0;-0.9266;2.4683;9.4297;-0.6400;0.1275;-0.3582;-0.2729;0.3329;-0.7407;1;1.0487;2.6105;9.6778;-1.3433;1.2214;-0.1838;0.5283;-0.3903;-0.7505;6;10.0848;0.8806;1.0495;0.3651;3.3716;0.4770;-1.1637;-0.0853;-0.1321;1;0;
167;0;-0.3834;2.1167;9.5021;-0.6399;0.0967;-0.2974;-0.2863;0.2977;-0.6926;1;1.3915;2.5522;9.6256;-1.6190;1.1573;-0.1203;0.5343;-0.4143;-0.7205;6;9.5189;1.2226;1.1538;-0.7009;2.6621;1.1485;-1.1963;-0.1058;-0.1689;1;0;
168;0;-0.2039;2.1755;9.4461;-0.2966;0.2525;-0.2061;-0.2698;0.3347;-0.6904;1;1.3326;2.8396;9.5672;-1.1528;0.9763;-0.1527;0.5043;-0.4143;-0.7325;6;10.0219;0.8235;0.7050;-1.9846;1.6480;1.8240;-1.1639;-0.1041;-0.1149;1;0;
169;0;-0.3236;2.4084;9.4994;-0.2669;0.1610;-0.1777;-0.2376;0.3502;-0.7381;1;0.9333;2.4379;9.6162;-0.5019;0.9237;0.1204;0.5223;-0.4083;-0.7265;6;10.1343;0.8234;0.6499;-2.9112;0.7934;1.9986;-1.1957;-0.0863;-0.1505;1;0;
170;0;-0.3836;2.2917;9.4999;-0.3248;0.3126;-0.0507;-0.2709;0.3341;-0.7072;1;1.0433;2.5517;9.3846;0.0587;0.6826;0.1800;0.5223;-0.4143;-0.7385;6;9.6263;0.2554;0.7545;-3.6018;0.1575;1.7683;-1.1959;-0.1051;-0.1333;1;0;
171;0;-0.6821;2.0572;9.6143;-0.4739;0.6164;-0.0114;-0.3033;0.2218;-0.7296;1;1.3889;2.7817;9.5094;0.7097;0.5349;0.2078;0.5223;-0.4083;-0.7445;6;9.9113;0.9944;0.8747;-3.5097;-0.4066;0.7778;-1.2269;-0.0486;-0.1499;1;0;
172;0;-0.2666;2.4105;9.3253;-0.6596;0.5532;0.0510;-0.2714;0.2952;-0.7419;1;1.3916;3.1275;9.6867;0.9941;0.3243;0.5146;0.5103;-0.4203;-0.7385;6;9.6251;1.2790;0.7553;-3.4475;-0.5752;-0.2087;-1.1959;-0.0867;-0.1683;1;0;
173;0;-0.5624;2.5240;9.6105;-0.5660;0.6460;-0.0096;-0.2523;0.2950;-0.7241;1;1.3894;3.1270;9.5696;0.9003;0.3216;0.3308;0.5163;-0.4083;-0.7325;6;9.8556;0.9377;0.9309;-3.1769;-0.4494;-0.4924;-1.1959;-0.0867;-0.1683;1;0;
174;0;-0.0800;1.8813;9.6271;-0.6588;0.6759;-0.0693;-0.2518;0.3339;-0.6894;1;0.8685;3.0116;9.2662;0.6244;0.2890;0.4556;0.5223;-0.4143;-0.7445;6;9.8593;1.3928;1.1602;-2.7523;-0.2622;-0.8109;-1.1954;-0.0671;-0.1499;1;0;
175;0;-0.1433;1.8252;9.4516;-0.5935;0.8904;-0.0655;-0.3054;0.2979;-0.7104;1;1.1663;2.7836;9.8565;0.7140;0.4133;0.4236;0.5103;-0.4083;-0.7325;6;9.9174;1.1084;1.2182;-2.3218;0.0136;-0.9445;-1.1795;-0.0668;-0.1496;1;0;
176;0;-0.5667;2.5853;9.3762;-0.3423;0.8604;0.3613;-0.2881;0.3160;-0.7088;1;0.7655;2.6693;9.8483;0.6543;0.3518;0.5165;0.5163;-0.4023;-0.7265;6;9.9178;0.8241;1.2180;-1.4948;0.5057;-1.3033;-1.2113;-0.0675;-0.1502;1;0;
177;0;-0.3807;2.4646;9.6729;-0.2456;1.1057;0.3654;-0.3273;0.3158;-0.7612;1;1.2184;2.6097;9.5639;0.5292;0.3481;0.2714;0.5103;-0.4023;-0.7385;6;9.2919;1.2798;1.1497;-0.8820;0.8746;-1.5645;-1.1797;-0.0672;-0.1673;1;0;
178;0;-0.2620;2.1741;9.5618;-0.2788;0.9834;0.3324;-0.2508;0.3345;-0.6726;1;1.3328;2.7245;9.5667;0.4372;0.4432;0.6094;0.5163;-0.4083;-0.7445;6;9.4088;1.0523;1.3233;-0.3926;1.0909;-1.7925;-1.1643;-0.1048;-0.1505;1;0;
179;0;-0.8660;2.1764;9.4345;-0.2805;0.8610;0.3605;-0.2709;0.3341;-0.7072;1;1.1567;2.6088;9.3285;0.6523;0.3809;0.3319;0.5163;-0.4143;-0.7385;6;9.8053;0.8243;1.2731;0.2031;1.3924;-1.5928;-1.1805;-0.1058;-0.1863;1;0;
180;0;-0.4437;2.2335;9.4995;-0.1563;0.9235;0.3295;-0.3234;0.2987;-0.7115;1;1.3247;2.9528;9.1576;0.8076;0.3839;0.4846;0.5223;-0.4143;-0.7265;6;9.9743;0.9946;1.2192;0.4239;1.4820;-1.4758;-1.2116;-0.0866;-0.1508;1;0;
181;0;-0.2551;2.5192;9.9662;-0.2836;0.6778;0.3566;-0.2683;0.2969;-0.6916;1;1.1610;2.6673;9.5631;0.8985;0.4782;0.5450;0.5043;-0.4023;-0.7325;6;9.5781;0.9951;1.2691;1.3453;1.5467;-1.7487;-1.1803;-0.1055;-0.1686;1;0;
182;0;-0.5071;2.2357;9.3233;-0.2242;0.4948;0.4134;-0.2879;0.3355;-0.6914;1;1.2209;2.4377;9.6803;0.8058;0.4770;0.5148;0.5103;-0.4083;-0.7325;6;9.5252;1.2229;1.4972;1.8844;1.7688;-2.3776;-1.1956;-0.0675;-0.1677;1;0;
183;0;-0.6801;2.1141;9.7304;0.0173;0.2843;0.2212;-0.2706;0.3536;-0.6898;1;1.5527;2.3768;9.0423;0.5900;0.4430;0.4241;0.5223;-0.4143;-0.7325;6;9.3483;1.5072;1.1509;2.4362;1.8325;-2.5779;-1.1800;-0.0863;-0.1679;1;0;
184;0;-0.5655;1.7098;9.3872;0.1090;0.2241;0.2188;-0.3088;0.3540;-0.7254;1;1.2181;2.7822;9.5647;0.7719;0.5679;0.3608;0.5163;-0.4083;-0.7505;6;9.5161;0.9950;0.9819;2.4176;1.8572;-2.1777;-1.2273;-0.0493;-0.1855;1;0;
185;0;-0.6219;2.0571;9.6154;0.0485;0.1615;0.4335;-0.2477;0.3363;-0.6223;1;1.1587;2.7243;9.4462;0.5543;0.6588;0.3923;0.5343;-0.4023;-0.7205;6;9.2321;1.1659;0.9768;2.4912;2.0041;-1.8100;-1.1800;-0.0863;-0.1679;1;0;
186;0;-0.2614;2.4652;9.6166;0.3270;0.1948;0.4307;-0.3072;0.3162;-0.7266;1;1.4462;2.1487;9.4491;0.6213;0.5075;0.6694;0.5283;-0.4083;-0.7385;6;9.2900;1.1091;1.0351;2.5329;2.1210;-1.4723;-1.1963;-0.1058;-0.1689;1;0;
187;0;-0.8152;2.0662;8.9114;0.0150;0.0084;0.4306;-0.2923;0.3136;-0.7759;1;1.1621;2.6676;9.6217;0.5248;0.6602;0.5768;0.5043;-0.4143;-0.7325;6;9.0086;0.8820;1.1441;2.7898;2.0863;-1.1730;-1.2110;-0.0298;-0.1845;1;0;
188;0;-0.3863;1.9438;9.3291;-0.0383;0.4349;0.5635;-0.2884;0.2965;-0.7262;1;1.3278;2.4357;9.2725;0.5250;0.6287;0.5156;0.5163;-0.4083;-0.7265;6;9.6349;0.9382;1.2701;2.6802;2.4149;-0.7369;-1.1796;-0.0856;-0.1324;1;0;
189;0;-0.6183;2.5211;9.8431;-0.0732;0.3132;0.3768;-0.2709;0.3341;-0.7072;1;1.0454;2.6097;9.5021;0.4955;0.5666;0.5161;0.5223;-0.4143;-0.7325;6;9.6850;1.2222;0.9280;2.7789;2.5036;-0.5548;-1.2113;-0.0859;-0.1153;1;0;
190;0;-0.5680;2.0031;9.2667;-0.4171;0.2192;0.1330;-0.3051;0.3174;-0.6931;1;1.2784;2.3226;9.6809;0.3061;0.6860;0.2707;0.5223;-0.4023;-0.7325;6;9.5225;0.8815;1.3252;3.0307;2.6237;-0.4384;-1.2111;-0.0671;-0.1324;1;0;
191;0;-0.3815;2.2903;9.6167;-0.2920;0.3121;0.1335;-0.2933;0.3904;-0.7400;1;1.4486;2.6671;9.6272;0.1812;0.7781;0.3323;0.5223;-0.4023;-0.7205;6;9.8590;0.7672;1.1025;2.8199;2.4075;-0.2188;-1.1627;-0.0278;-0.1302;1;0;
192;0;-0.3109;2.3996;10.2002;-0.1053;0.4365;0.0723;-0.2528;0.3333;-0.7061;1;1.2210;2.3802;9.6801;-0.0355;0.8065;0.3027;0.5043;-0.4143;-0.7385;6;9.4560;1.1655;0.8093;2.4893;2.2808;0.1281;-1.1961;-0.1055;-0.1511;1;0;
193;0;-0.5638;2.0002;9.5003;-0.0750;0.4370;0.0104;-0.2685;0.2775;-0.7090;1;1.5583;2.9534;9.3963;0.0299;0.6213;0.2727;0.5283;-0.4143;-0.7445;6;9.9166;0.9378;1.1609;1.8491;1.8188;0.5123;-1.1802;-0.1051;-0.1508;1;0;
194;0;-0.3785;2.4632;9.7896;-0.0147;0.2537;0.1595;-0.3232;0.3182;-0.6941;1;1.3359;2.8403;9.7429;0.0284;0.6829;0.2416;0.5103;-0.4203;-0.7385;6;9.8599;0.8810;1.1598;0.8613;1.5428;0.6626;-1.2106;-0.0476;-0.1140;1;0;
195;0;-0.6890;2.4702;9.2588;-0.1081;0.1915;0.1900;-0.2364;0.3703;-0.7039;1;1.6176;2.4360;9.4537;-0.0025;0.6508;0.1498;0.5163;-0.4143;-0.7385;6;9.5164;0.7107;0.9817;0.3038;1.1465;0.7068;-1.1800;-0.0863;-0.1679;1;0;
196;0;-0.6805;2.4059;9.7267;-0.1369;0.3749;0.1021;-0.2709;0.3341;-0.7072;1;1.2161;2.6667;9.4470;-0.4015;0.6172;0.3060;0.5223;-0.4083;-0.7385;6;9.8574;1.2221;1.0456;0.1097;0.8760;0.4646;-1.1969;-0.1442;-0.1701;1;0;
197;0;-0.2649;1.9429;9.3896;-0.3514;0.4951;0.0767;-0.2871;0.3166;-0.6920;1;1.3349;2.7826;9.6841;0.2784;0.5626;0.3330;0.5163;-0.4143;-0.7325;6;9.9149;0.5965;1.0461;0.0678;0.6982;0.1265;-1.1959;-0.1051;-0.1333;1;0;
198;0;-0.5103;2.2963;9.1473;-0.3820;0.5869;-0.0440;-0.2670;0.3170;-0.6575;1;1.0470;2.3224;9.5593;-0.2114;0.4351;0.4596;0.5103;-0.4203;-0.7265;6;9.4621;0.4833;1.0949;0.1942;0.6057;0.2141;-1.1809;-0.1250;-0.1869;1;0;
199;0;-0.4374;2.2874;9.8492;-0.2598;0.5887;-0.1685;-0.2698;0.3347;-0.6904;1;1.0968;2.8384;9.2113;0.4962;0.5357;0.5163;0.5103;-0.4143;-0.7325;6;9.7482;1.1087;1.2723;0.2586;0.5131;0.3036;-1.1643;-0.0863;-0.1854;1;0;
200;0;-0.4387;2.4049;9.7893;-0.3254;0.2821;-0.0513;-0.2680;0.3164;-0.6742;1;1.5530;2.8371;9.1029;-0.0281;0.5300;0.4887;0.5163;-0.4143;-0.7265;6;9.8659;1.1087;1.5033;0.4821;0.5710;0.5125;-1.1963;-0.1058;-0.1689;1;0;
201;0;-0.6836;2.4081;9.5515;0.2557;0.0751;-0.2784;-0.2714;0.2952;-0.7419;1;1.0362;2.8377;9.0344;0.0610;0.6537;0.3952;0.5163;-0.4083;-0.7265;6;9.4095;1.2798;1.3807;0.7405;0.6880;0.8437;-1.2276;-0.0870;-0.1511;1;0;
202;0;-0.2609;2.9314;9.6691;0.5625;-0.2593;0.0488;-0.2531;0.3912;-0.6708;1;1.0980;2.7811;9.2696;-0.2489;0.6485;0.1820;0.5223;-0.4143;-0.7265;6;9.9694;0.7100;0.9328;0.8848;0.6624;0.5012;-1.1954;-0.0487;-0.1848;1;0;
203;0;-0.6253;2.2344;9.4380;0.3171;-0.3548;0.3574;-0.3051;0.3174;-0.6931;1;0.9919;2.3230;9.6754;-0.3119;0.7415;0.2740;0.5043;-0.4203;-0.7205;6;9.8620;0.8811;1.2742;1.1007;0.9981;0.4360;-1.2284;-0.1072;-0.2051;1;0;
204;0;-0.2569;2.2872;9.8524;0.3161;-0.2621;0.1134;-0.2693;0.2964;-0.7084;1;1.3275;2.6082;9.2732;-0.1291;0.8359;0.2416;0.5223;-0.4143;-0.7385;6;9.6333;0.5400;1.1553;1.2784;1.1239;0.1551;-1.1797;-0.0672;-0.1673;1;0;
205;0;-0.8714;2.2384;9.1417;0.1040;-0.1737;0.3640;-0.2696;0.2769;-0.7257;1;1.1608;2.7823;9.5636;-0.3729;0.6464;0.0905;0.4983;-0.3963;-0.7325;6;9.6970;0.8246;1.5572;1.1823;1.3082;0.0365;-1.2115;-0.0678;-0.1680;1;0;
206;0;-0.3899;2.2378;9.1502;-0.1095;0.0076;0.3398;-0.3059;0.3363;-0.6925;1;1.6171;2.7235;9.4550;-0.5297;0.7685;0.0907;0.5103;-0.4203;-0.7265;6;9.2915;1.5641;1.1499;1.2689;1.4026;-0.1804;-1.2272;-0.0678;-0.1505;1;0;
207;0;-0.4978;2.4042;9.8467;-0.1716;0.2224;-0.0238;-0.2696;0.2769;-0.7257;1;1.3868;2.7237;9.3920;-0.5643;0.9540;0.1205;0.5223;-0.4083;-0.7145;6;9.2923;0.9385;1.1494;0.9606;1.7981;-0.1680;-1.1648;-0.1243;-0.1688;1;0;
208;0;-0.2698;1.7131;9.1005;-0.1414;0.2230;-0.0857;-0.3054;0.2979;-0.7104;1;1.5615;3.0117;9.5723;-0.8129;0.9806;-0.0625;0.5163;-0.4143;-0.7385;6;9.4089;0.9385;1.3232;0.8034;1.9515;-0.2543;-1.1808;-0.1435;-0.1520;1;0;
209;0;-0.4457;2.1182;9.3842;-0.0750;0.3447;0.1622;-0.3072;0.3162;-0.7266;1;1.4422;2.5505;9.2752;-0.9351;0.9490;-0.0002;0.4983;-0.4023;-0.7265;6;9.5180;1.1657;1.0965;0.3912;1.8196;0.4638;-1.2290;-0.1267;-0.2235;1;0;
210;0;-0.5088;2.7034;9.2590;-0.0482;0.1930;0.0048;-0.2662;0.2981;-0.6580;1;1.3871;2.5511;9.3912;-0.7786;0.8584;0.0609;0.5163;-0.4143;-0.7385;6;9.5230;1.2796;1.3828;-0.0586;1.6602;0.9676;-1.2283;-0.1069;-0.1873;1;0;
211;0;-0.4463;2.5851;9.3783;-0.0455;0.1611;0.3116;-0.2894;0.3733;-0.6903;1;1.1584;2.8968;9.4470;-0.7200;0.9821;-0.0016;0.5103;-0.4263;-0.7445;6;9.8053;0.8243;1.2731;-0.2109;1.5675;1.0636;-1.1957;-0.1048;-0.1156;1;0;
212;0;-0.6814;2.2899;9.6698;-0.1694;0.1599;0.2824;-0.2873;0.2971;-0.7094;1;1.0452;2.7248;9.5026;-0.6260;0.8261;-0.2471;0.5103;-0.4143;-0.7265;6;9.9694;0.7100;0.9328;-0.5462;1.1383;1.2853;-1.1961;-0.1055;-0.1511;1;0;
213;0;-0.6837;2.4665;9.5508;-0.2648;-0.0244;0.3103;-0.3067;0.3552;-0.6919;1;1.3869;2.6662;9.3918;-0.6533;0.7351;-0.0313;0.5043;-0.4143;-0.7445;6;9.5214;0.9383;1.2680;-0.8732;0.6442;1.7828;-1.1958;-0.0678;-0.1854;1;0;
214;0;-0.5586;2.1132;9.7909;-0.2929;0.2202;0.1930;-0.2887;0.3544;-0.6909;1;0.9826;2.6085;9.2081;-0.5322;0.8289;-0.0633;0.5163;-0.4083;-0.7385;6;9.6346;1.1657;1.2703;-0.9981;0.3094;1.7838;-1.2277;-0.0873;-0.1689;1;0;
215;0;-0.4512;2.2970;9.0900;-0.1697;0.1601;0.2516;-0.2899;0.3343;-0.7250;1;1.2156;2.9543;9.4483;-0.5635;0.8279;-0.1245;0.5223;-0.3963;-0.7385;6;9.9758;0.6534;1.2761;-1.0615;0.1272;1.7535;-1.1961;-0.0870;-0.1860;1;0;
216;0;-0.3233;2.2333;9.5016;-0.3225;0.1578;0.4073;-0.2866;0.2783;-0.7100;1;1.2169;2.8395;9.5064;-0.4084;0.7989;-0.0945;0.5163;-0.4263;-0.7385;6;9.9096;0.7100;0.7601;-1.2150;-0.0868;1.8179;-1.2120;-0.0873;-0.1864;1;0;
217;0;-0.8701;2.8789;9.2505;0.0393;-0.1731;0.0880;-0.2873;0.2971;-0.7094;1;0.9832;2.8964;9.2679;-0.6544;0.7655;-0.0929;0.4983;-0.4263;-0.7325;6;9.6916;0.9950;1.2712;-1.2244;-0.0824;1.5109;-1.1957;-0.0863;-0.1505;1;0;
218;0;-0.2619;2.8737;9.6114;0.2550;-0.2015;0.0847;-0.2892;0.3154;-0.7256;1;1.1598;2.7246;9.5048;-0.7810;0.8870;-0.1851;0.5103;-0.3963;-0.7265;6;9.7986;1.1652;0.9300;-1.2052;-0.2293;1.1404;-1.1477;-0.0661;-0.1489;1;0;
219;0;-0.7415;2.2900;9.6687;0.0686;-0.3259;0.1766;-0.3062;0.3168;-0.7098;1;1.1549;3.0111;9.2717;-0.9083;1.1030;-0.0934;0.5223;-0.4083;-0.7265;6;9.8020;0.9947;1.1016;-1.3637;-0.2276;1.0223;-1.1795;-0.0668;-0.1496;1;0;
220;0;-0.3258;2.4682;9.3819;0.0702;-0.2651;0.2394;-0.3232;0.3182;-0.6941;1;1.3854;2.2631;9.2728;-1.1583;1.1915;-0.2769;0.5163;-0.4143;-0.7385;6;9.6875;0.9380;1.0422;-1.1135;-0.0153;1.0779;-1.2267;-0.0298;-0.1671;1;0;
221;0;-0.4425;2.1160;9.5594;0.0996;-0.2949;0.1461;-0.2873;0.2971;-0.7094;1;0.9910;2.8982;9.6780;-1.0348;1.1294;-0.4309;0.5163;-0.4023;-0.7385;6;9.6349;0.9382;1.2701;-0.6353;-0.0681;0.5101;-1.1798;-0.1044;-0.1152;1;0;
222;0;-0.8603;2.6389;9.7790;0.1013;-0.2956;0.2999;-0.3043;0.2985;-0.6937;1;1.2769;2.5524;9.6234;-0.9121;1.2570;-0.1558;0.5103;-0.4083;-0.7325;6;10.0845;1.1650;1.0497;-0.0150;0.2973;0.4945;-1.1960;-0.0682;-0.2032;1;0;
223;0;-0.4418;2.4071;9.6141;0.1022;-0.2960;0.3921;-0.2685;0.2775;-0.7090;1;1.3371;2.7831;9.8012;-0.9755;1.3176;-0.2172;0.5103;-0.4143;-0.7325;6;9.4604;0.9951;1.0381;0.5102;0.5723;0.4195;-1.1807;-0.1062;-0.2041;1;0;
224;0;-0.5037;2.0584;9.5007;0.0086;-0.3581;0.3919;-0.3224;0.2993;-0.6947;1;1.9089;2.8394;9.7539;-0.8225;1.3495;-0.2798;0.5163;-0.4023;-0.7325;6;9.6884;0.9949;1.0995;0.6642;0.9080;0.3561;-1.1798;-0.0860;-0.1502;1;0;
225;0;-0.6848;2.5256;9.4916;-0.0529;-0.3588;0.4234;-0.2667;0.3365;-0.6401;1;1.2699;3.4713;9.3346;-0.9167;1.4416;-0.2490;0.5103;-0.4083;-0.7445;6;9.2910;1.1660;1.0923;0.8166;1.0615;0.2606;-1.2127;-0.1257;-0.1876;1;0;
226;0;-0.5133;2.1234;8.9743;-0.0221;-0.4200;0.5140;-0.3041;0.3180;-0.6763;1;1.2148;2.7815;9.3890;-1.1000;1.3149;-0.3701;0.5043;-0.4143;-0.7385;6;9.7464;0.8811;1.1577;1.1267;1.2138;0.2526;-1.2118;-0.0870;-0.1686;1;0;
227;0;-0.7496;2.0041;9.2052;-0.1491;-0.5736;0.4200;-0.2871;0.3166;-0.6920;1;1.2195;2.6100;9.6225;-1.3797;1.4045;-0.3997;0.5103;-0.4083;-0.7385;6;9.8616;1.2223;1.2745;1.0318;1.1842;0.1937;-1.2116;-0.0866;-0.1508;1;0;
228;0;-0.3233;2.2333;9.5016;0.0090;-0.4505;0.5744;-0.3232;0.3182;-0.6941;1;1.8476;2.6084;9.5175;-1.2863;1.4066;-0.2774;0.4983;-0.4203;-0.7385;6;9.3436;1.1089;0.8644;0.8826;1.1511;0.3823;-1.1479;-0.0665;-0.1667;1;0;
229;0;-0.5663;2.2934;9.3799;0.2808;-0.8143;0.5631;-0.3252;0.3170;-0.7276;1;1.3876;2.8965;9.4514;-1.6607;1.5877;-0.3377;0.5043;-0.4203;-0.7265;6;9.8626;1.2223;1.3317;0.4278;0.9026;0.7319;-1.1482;-0.0856;-0.1673;1;0;
230;0;-0.5641;2.2336;9.4974;0.0654;-0.9091;0.7791;-0.2717;0.3530;-0.7066;1;1.3297;2.6087;9.3904;-1.8492;1.7083;-0.4603;0.5163;-0.4083;-0.7445;6;9.6264;1.0516;0.8123;0.3168;0.8051;1.1646;-1.2122;-0.1062;-0.1692;1;0;
231;0;-0.7482;2.5279;9.3154;-0.1512;-0.9726;0.8419;-0.2703;0.2958;-0.7251;1;1.1611;2.6098;9.5628;-2.1621;1.9216;-0.4597;0.5163;-0.4203;-0.7505;6;9.6368;1.1089;1.3847;0.2594;0.7421;1.3195;-1.1954;-0.0671;-0.1499;1;0;
232;0;-0.8673;2.3522;9.3739;-0.0575;-1.0029;0.9939;-0.3043;0.2985;-0.6937;1;1.0965;2.3780;9.1506;-1.8882;2.0469;-0.5850;0.5103;-0.4083;-0.7385;6;9.6329;0.8244;1.1556;0.6250;0.6535;1.1235;-1.2279;-0.0877;-0.1867;1;0;
233;0;-0.2629;2.0581;9.5049;-0.2114;-1.0354;1.0873;-0.2853;0.2983;-0.6759;1;1.1609;2.7248;9.5634;-1.9454;1.8932;-0.4301;0.5223;-0.4143;-0.7265;6;9.6934;1.2226;1.3858;0.5878;0.7783;0.9105;-1.1802;-0.1051;-0.1508;1;0;
234;0;-0.5663;2.2934;9.3799;-0.4254;-0.8847;1.0625;-0.2683;0.2969;-0.6916;1;1.3904;2.5519;9.5670;-1.9452;1.8617;-0.4913;0.5283;-0.4323;-0.7325;6;9.2868;1.1658;0.8634;0.6627;1.0161;1.3096;-1.2123;-0.1250;-0.1520;1;0;
235;0;-0.2665;2.3521;9.3260;-0.5506;-0.9468;1.0013;-0.2160;0.3129;-0.7047;1;1.3321;2.4942;9.5070;-1.7310;1.9254;-0.5237;0.5163;-0.4023;-0.7265;6;9.6893;1.1655;1.1569;0.6981;1.2274;1.4331;-1.2108;-0.0480;-0.1318;1;0;
236;0;-0.7415;2.2317;9.6694;-0.4567;-0.7926;0.8804;-0.2364;0.3703;-0.7039;1;1.0455;2.5522;9.5018;-1.9146;1.8617;-0.5222;0.5223;-0.4083;-0.7445;6;9.1676;0.7107;0.5176;0.7359;1.3156;1.6478;-1.1961;-0.1055;-0.1511;1;0;
237;0;-1.2292;2.1783;9.3113;-0.4908;-0.9454;0.8160;-0.2691;0.3158;-0.6910;1;1.2184;2.6097;9.5639;-1.9743;1.8001;-0.4293;0.5343;-0.4323;-0.7325;6;9.5193;0.9383;1.1536;0.3410;1.3424;1.9057;-1.1941;0.0095;-0.1474;1;0;
238;0;-0.4452;2.5844;9.4367;-0.3945;-0.6691;0.7285;-0.2364;0.3703;-0.7039;1;1.1581;1.8036;9.3249;-1.7596;1.8326;-0.4922;0.5163;-0.4203;-0.7265;6;9.6246;0.8240;0.6977;-0.1468;1.3387;2.1661;-1.2119;-0.1243;-0.1165;1;0;
239;0;-0.3829;1.7665;9.5065;-0.1139;-0.4520;0.6375;-0.2680;0.3164;-0.6742;1;1.1113;2.7267;9.9723;-1.8171;1.6150;-0.5521;0.5163;-0.4203;-0.7265;6;9.9143;0.1983;0.9886;-0.8238;1.1537;2.3385;-1.2127;-0.1257;-0.1876;1;0;
240;0;-0.7436;2.2331;9.5526;-0.1793;-0.5127;0.3909;-0.3088;0.3540;-0.7254;1;0.9823;2.7811;9.2088;-1.4750;1.5587;-0.3386;0.5404;-0.4083;-0.7205;6;9.9673;0.7100;0.8183;-1.1655;0.7579;2.3455;-1.1800;-0.0863;-0.1679;1;0;
241;0;-0.5638;2.0002;9.5003;-0.0221;-0.5430;0.6958;-0.3054;0.2979;-0.7104;1;1.1658;2.4383;9.7964;-1.0676;1.2537;-0.3392;0.5283;-0.4143;-0.7445;6;9.5681;0.6535;0.6965;-1.6831;0.5548;1.6526;-1.1484;-0.0860;-0.1851;1;0;
242;0;-0.5676;2.4693;9.3193;-0.2032;-0.2083;0.5824;-0.2175;0.3506;-0.7035;1;1.3334;2.3795;9.5651;-0.3259;1.2318;-0.1898;0.5103;-0.3963;-0.7265;6;9.8549;0.7101;0.8735;-1.8747;0.4660;1.4733;-1.1795;-0.0668;-0.1496;1;0;
243;0;-0.5031;2.4079;9.5547;-0.4173;-0.0268;0.4967;-0.3062;0.3168;-0.7098;1;1.4367;2.5492;8.9823;-0.4148;1.1401;0.0264;0.5283;-0.4143;-0.7265;6;9.1715;0.9384;0.7467;-2.3390;0.1915;1.5157;-1.1951;-0.0480;-0.1493;1;0;
244;0;-0.3276;2.2362;9.2680;-0.1708;0.1913;0.0986;-0.2520;0.3144;-0.7067;1;1.1003;2.7241;9.3865;0.1510;0.6833;0.1487;0.5103;-0.4083;-0.7325;6;9.5160;1.0519;0.9820;-2.8661;-0.0826;1.5293;-1.1961;-0.1055;-0.1511;1;0;
245;0;-0.3308;2.2968;9.0921;-0.3577;0.0978;0.0989;-0.2897;0.3538;-0.7076;1;1.1041;2.4374;9.5610;0.0242;0.8363;0.1178;0.5163;-0.4023;-0.7205;6;9.8554;1.1083;0.9310;-2.9738;-0.3195;1.0697;-1.1627;-0.0278;-0.1302;1;0;
246;0;-0.2568;2.2288;9.8531;-0.4788;0.1263;0.2855;-0.2887;0.3544;-0.6909;1;0.9856;2.7819;9.3846;0.0288;0.6199;0.1191;0.5163;-0.4023;-0.7325;6;9.7410;0.9946;0.8716;-2.9808;-0.4382;0.8539;-1.1798;-0.0860;-0.1502;1;0;
247;0;-0.3218;2.6404;9.6133;-0.3270;0.0674;0.1286;-0.2884;0.2965;-0.7262;1;1.0525;3.0141;9.9139;-0.0340;0.6814;0.1498;0.4983;-0.4083;-0.7505;6;9.7454;0.8242;1.1004;-3.0445;-0.7421;0.8226;-1.1646;-0.1055;-0.1860;1;0;
248;0;-0.5621;2.3489;9.6127;-0.3612;-0.0546;0.0034;-0.2868;0.3361;-0.6747;1;0.7630;2.8413;9.7319;-0.2525;0.7710;0.0584;0.5223;-0.4083;-0.7325;6;9.7437;1.3360;1.0436;-2.8270;-0.4681;0.8183;-1.1804;-0.0870;-0.2035;1;0;
249;0;-0.6854;2.1761;9.4376;-0.1719;0.0687;0.1882;-0.2688;0.3353;-0.6736;1;1.2168;2.8970;9.5066;-0.3780;0.8622;0.0278;0.5163;-0.4083;-0.7265;6;9.3470;0.9384;1.0360;-2.5753;-0.3785;0.9344;-1.1957;-0.0863;-0.1505;1;0;
250;0;-0.4453;1.8264;9.3879;-0.1731;-0.0231;0.2170;-0.2680;0.3164;-0.6742;1;1.0444;2.5520;9.4432;-0.3778;0.8625;0.0585;0.5103;-0.4083;-0.7205;6;9.7467;0.6536;1.1575;-2.3872;-0.2271;0.9914;-1.2135;-0.1644;-0.2066;1;0;
251;0;-0.5026;2.8157;9.6079;-0.2653;0.0989;0.0670;-0.3232;0.3182;-0.6941;1;1.1578;2.6090;9.3871;-0.2828;0.7713;0.1200;0.5163;-0.4143;-0.7445;6;9.5162;0.9381;0.9819;-2.1502;0.2656;0.5888;-1.1964;-0.1062;-0.1867;1;0;
252;0;-0.6239;2.7582;9.5482;-0.2653;0.1604;-0.0239;-0.2920;0.3331;-0.7585;1;1.2140;2.6087;9.3296;-0.0377;0.8354;0.0874;0.5163;-0.4143;-0.7145;6;10.1415;0.9374;1.0506;-2.0006;0.7252;0.3729;-1.2281;-0.1065;-0.1695;1;0;
253;0;-0.3193;2.4055;9.7330;-0.3261;0.2208;-0.0219;-0.2873;0.2971;-0.7094;1;1.3365;2.4953;9.7414;0.0623;0.4965;0.1196;0.5163;-0.4203;-0.7325;6;9.6305;1.1086;1.0413;-1.8285;0.8841;-0.0919;-1.2116;-0.0866;-0.1508;1;0;
254;0;-0.2632;2.2916;9.5020;-0.4151;0.4337;-0.0161;-0.2696;0.3542;-0.6730;1;0.9936;2.6111;9.7939;0.0599;0.6523;0.2416;0.5283;-0.4083;-0.7505;6;9.6900;0.5400;1.1564;-1.7630;1.1262;0.0003;-1.1800;-0.0863;-0.1679;1;0;
255;0;-0.5677;2.5276;9.3185;-0.4446;0.6174;-0.1656;-0.2683;0.2969;-0.6916;1;0.9358;2.9563;9.7943;-0.1553;0.5556;0.0591;0.5103;-0.4083;-0.7325;6;9.6916;1.7912;1.3290;-1.6964;1.4288;0.1236;-1.2115;-0.0678;-0.1680;1;0;
256;0;-0.3163;1.7036;9.8586;-0.3220;0.6190;-0.2593;-0.2868;0.3361;-0.6747;1;0.9343;2.4957;9.6751;-0.0295;0.4965;0.2123;0.5043;-0.4203;-0.7265;6;10.0301;0.9376;1.1629;-1.8149;1.3348;0.3108;-1.1802;-0.0867;-0.1857;1;0;
257;0;-0.2600;2.2310;9.6779;-0.3228;0.6501;-0.3817;-0.3232;0.3182;-0.6941;1;1.1590;2.5518;9.4454;0.1905;0.3135;0.2428;0.5283;-0.4023;-0.7385;6;9.9684;0.7100;0.8756;-2.0639;1.1830;0.2863;-1.1648;-0.1243;-0.1688;1;0;
258;0;-0.6263;2.1768;9.3803;-0.1369;0.7441;-0.4742;-0.2871;0.3166;-0.6920;1;1.1601;2.5520;9.5040;0.0680;0.2816;0.2745;0.5103;-0.4083;-0.7265;6;9.6831;1.1084;0.8134;-2.2859;1.0025;0.1379;-1.1956;-0.0860;-0.1327;1;0;
259;0;-0.2667;2.5272;9.3238;-0.3203;0.7414;-0.2874;-0.2711;0.3146;-0.7245;1;1.5024;2.7812;9.4531;0.1321;0.1583;0.2441;0.5163;-0.4083;-0.7325;6;9.8037;0.4261;1.1584;-2.3794;0.7895;0.1390;-1.1960;-0.0682;-0.2032;1;0;
260;0;-0.6877;2.2943;9.3194;-0.1697;0.5907;-0.4156;-0.2881;0.3160;-0.7088;1;1.1007;2.4941;9.3855;0.2556;0.1280;0.1821;0.5223;-0.4263;-0.7145;6;10.0849;0.8237;1.0494;-2.3828;0.6082;0.0454;-1.1643;-0.0863;-0.1854;1;0;
261;0;-0.3900;2.2961;9.1495;-0.1682;0.6209;-0.3227;-0.2528;0.3333;-0.7061;1;1.4495;2.7824;9.6863;0.1944;0.1280;0.2439;0.5043;-0.4143;-0.7325;6;9.6297;0.9380;0.9839;-2.4487;0.5491;-0.0760;-1.2116;-0.0866;-0.1508;1;0;
262;0;-0.3802;2.8724;9.7261;-0.2592;0.4654;0.0749;-0.3244;0.2981;-0.7282;1;1.2149;2.7240;9.3887;0.2856;0.1908;0.2430;0.5223;-0.4203;-0.7265;6;9.6916;0.9381;1.2712;-2.1495;0.5236;-0.4232;-1.1952;-0.0483;-0.1670;1;0;
263;0;-0.9812;2.2896;9.7229;-0.2588;0.5883;-0.0763;-0.2698;0.3347;-0.6904;1;0.7044;2.2658;9.6111;0.4990;0.2851;0.1797;0.5283;-0.4083;-0.7385;6;9.5693;1.3360;0.8115;-2.0516;0.6431;-0.2715;-1.2122;-0.1062;-0.1692;1;0;
264;0;-0.3852;1.8847;9.3882;-0.4736;0.7086;-0.1325;-0.2330;0.3142;-0.6889;1;1.4426;2.9534;9.3356;0.5644;0.1636;0.3337;0.5103;-0.4083;-0.7325;6;9.4637;0.8815;1.2097;-1.9321;0.7367;-0.4280;-1.2281;-0.0880;-0.2045;1;0;
265;0;-0.4987;2.2882;9.7897;-0.2270;0.6805;-0.1362;-0.2876;0.2777;-0.7268;1;1.3305;2.7815;9.4498;0.3768;0.2853;0.3341;0.5103;-0.4263;-0.7205;6;9.6325;1.1656;1.1558;-1.9344;0.9206;-0.5186;-1.1947;-0.0288;-0.1487;1;0;
266;0;-0.7441;2.5833;9.5482;-0.2910;0.5885;-0.1989;-0.2366;0.3508;-0.7213;1;1.0437;3.0121;9.4453;0.2207;0.4083;0.4265;0.5163;-0.4023;-0.7265;6;9.4668;0.8816;1.3814;-1.7407;1.0693;-0.2774;-1.1798;-0.0860;-0.1502;1;0;
267;0;-0.5598;2.1723;9.7317;-0.2900;0.6496;-0.1975;-0.2894;0.2960;-0.7429;1;1.6151;2.6080;9.3373;0.2235;0.2531;0.3659;0.5223;-0.4023;-0.7325;6;9.6353;0.5970;1.2698;-1.6293;1.2741;0.3048;-1.1956;-0.0675;-0.1677;1;0;
268;0;-0.0836;2.1753;9.4482;-0.2263;0.7418;-0.1656;-0.3051;0.3174;-0.6931;1;1.6200;2.9544;9.6318;-0.0555;0.2801;0.2445;0.5043;-0.4083;-0.7265;6;9.8598;0.9378;1.1598;-1.4223;1.4920;-0.0377;-1.2110;-0.0483;-0.1496;1;0;
269;0;-0.1407;2.2900;9.6209;-0.2882;0.6796;-0.0739;-0.2847;0.2600;-0.6938;1;0.9283;2.8395;9.3837;-0.0262;0.3737;0.3052;0.5163;-0.4203;-0.7385;6;9.5804;0.8246;1.3834;-1.0645;1.6204;-0.5083;-1.1961;-0.1055;-0.1511;1;0;
270;0;-0.2638;2.7001;9.4968;-0.2877;0.5872;0.1086;-0.3430;0.3373;-0.7113;1;1.0975;3.0687;9.2709;-0.1229;0.5261;0.1820;0.5163;-0.4023;-0.7385;6;10.0324;0.7102;1.2772;-1.0081;1.6535;-0.6941;-1.2435;-0.0873;-0.1515;1;0;
271;0;-0.4435;2.0584;9.5017;-0.3819;0.5561;0.0169;-0.2732;0.3908;-0.7054;1;0.9898;2.9554;9.6197;-0.0287;0.4341;0.1512;0.5223;-0.4143;-0.7325;6;9.8563;1.2789;0.9884;-1.0121;1.5640;-0.8176;-1.1956;-0.0490;-0.2026;1;0;
272;0;-0.2631;2.1749;9.5034;-0.1354;0.4051;0.1950;-0.2871;0.3166;-0.6920;1;1.3900;2.7820;9.5680;0.0011;0.4965;0.1814;0.5103;-0.4143;-0.7265;6;9.6946;1.0520;1.4429;-0.8689;1.4780;-1.1913;-1.1800;-0.1048;-0.1330;1;0;
273;0;-0.8656;1.8846;9.4381;0.1427;0.3155;0.3433;-0.2492;0.2968;-0.6738;1;1.2120;3.1260;9.2734;-0.3396;0.5546;0.1523;0.5103;-0.4023;-0.7385;6;9.8654;0.5968;1.4457;-0.3113;1.6000;-1.2070;-1.1952;-0.0483;-0.1670;1;0;
274;0;-0.3881;2.4698;9.2641;0.0434;0.0713;0.0933;-0.3059;0.2590;-0.7452;1;1.1000;2.8967;9.3873;-0.2438;0.4009;0.1527;0.5163;-0.4263;-0.7385;6;10.0227;0.9942;0.7624;-0.0507;1.8074;-0.8137;-1.1954;-0.0671;-0.1499;1;0;
275;0;-0.6266;2.4103;9.3774;0.0086;-0.1427;0.0583;-0.2709;0.3341;-0.7072;1;1.3885;3.0117;9.5105;-0.0585;0.4985;0.4583;0.5103;-0.4083;-0.7385;6;9.5731;0.8243;0.9828;0.3064;1.7083;-0.2721;-1.1961;-0.0870;-0.1860;1;0;
276;0;-0.2597;2.0559;9.6801;-0.1731;-0.0231;0.2170;-0.2717;0.3530;-0.7066;1;1.3902;2.6669;9.5675;-0.4605;0.4930;0.3071;0.5283;-0.3963;-0.7325;6;9.5731;0.8243;0.9828;0.5287;2.0105;-0.1227;-1.1795;-0.0668;-0.1496;1;0;
277;0;-0.3200;2.1144;9.6783;-0.0479;0.1928;0.0355;-0.2717;0.3530;-0.7066;1;1.1565;2.7238;9.3290;-0.0293;0.4650;0.1511;0.5043;-0.4143;-0.7325;6;9.3449;0.8814;0.9215;0.3270;2.3082;0.3467;-1.1959;-0.0867;-0.1683;1;0;
278;0;-0.4422;1.9409;9.5616;-0.2621;0.3743;-0.0501;-0.2879;0.3355;-0.6914;1;1.5632;2.6669;9.6294;-0.4607;0.4609;0.1843;0.5103;-0.4203;-0.7325;6;9.5086;0.3122;0.5235;0.1357;2.3108;0.1681;-1.1483;-0.1045;-0.1501;1;0;
279;0;-0.4439;2.4085;9.4973;-0.1076;0.3759;-0.0520;-0.2691;0.3158;-0.6910;1;1.4473;2.7819;9.5691;-0.4948;0.6469;0.2756;0.5043;-0.4083;-0.7325;6;10.1902;0.7095;0.5936;-0.3028;2.1911;0.0266;-1.1957;-0.0863;-0.1505;1;0;
280;0;-0.6753;1.7610;9.9684;-0.1397;0.3453;-0.1138;-0.2889;0.3349;-0.7082;1;1.1616;2.9551;9.6230;-0.3751;0.7389;0.0593;0.5103;-0.4083;-0.7385;6;9.6823;0.9377;0.7561;-0.8002;2.1309;-0.0205;-1.1477;-0.0661;-0.1489;1;0;
281;0;-0.4380;1.9380;9.7952;-0.1991;0.4667;-0.0796;-0.3036;0.2797;-0.6942;1;1.2132;2.4359;9.2703;-0.4727;0.9537;-0.0029;0.5163;-0.4083;-0.7385;6;9.6814;0.7671;0.6987;-0.9735;1.6069;0.4414;-1.1954;-0.0671;-0.1499;1;0;
282;0;-0.6178;2.1709;9.8475;-0.1095;0.2229;0.0062;-0.3072;0.3162;-0.7266;1;1.3922;2.7825;9.6852;-0.5331;0.8277;-0.1862;0.5163;-0.4203;-0.7205;6;10.0239;0.8805;0.8195;-1.6149;1.3892;0.7662;-1.1796;-0.0856;-0.1324;1;0;
283;0;-0.8670;2.1771;9.3761;-0.2030;0.1915;-0.0241;-0.3438;0.3562;-0.7107;1;1.1049;2.6102;9.6203;-0.6524;0.7363;0.0916;0.5103;-0.4323;-0.7265;6;9.2899;0.3128;0.9772;-1.8955;1.0243;0.7409;-1.1804;-0.0870;-0.2035;1;0;
284;0;-0.5048;2.1175;9.4415;-0.2938;0.2821;0.0098;-0.2863;0.2977;-0.6926;1;1.0475;2.6678;9.6195;-0.3121;0.6777;0.0593;0.5163;-0.4203;-0.7325;6;10.0260;0.8806;0.9340;-1.6910;0.7254;0.3637;-1.1954;-0.0671;-0.1499;1;0;
285;0;-0.2020;2.2908;9.5614;-0.1389;0.2527;0.0995;-0.3080;0.3351;-0.7260;1;1.0479;2.4377;9.6184;-0.2174;0.5862;0.0900;0.5043;-0.4083;-0.7265;6;9.3460;0.8246;0.9786;-1.4589;0.8851;-0.1644;-1.1799;-0.0675;-0.1851;1;0;
286;0;-0.6822;2.1156;9.6136;-0.3212;0.4341;0.1057;-0.3242;0.3176;-0.7109;1;0.9886;2.3223;9.4997;-0.0936;0.5880;0.1507;0.5163;-0.4083;-0.7205;6;9.6849;0.4829;0.8702;-1.2740;1.1903;-0.2289;-1.2123;-0.1065;-0.1870;1;0;
287;0;-1.1079;2.2942;9.3704;-0.1718;0.2532;-0.0846;-0.3056;0.2785;-0.7278;1;1.5663;2.7827;9.8056;-0.7706;0.5193;0.1551;0.5223;-0.4143;-0.7385;6;9.0635;1.5075;1.0884;-1.5517;1.1898;-0.1899;-1.1959;-0.1051;-0.1333;1;0;
288;0;-0.4455;2.0015;9.3857;-0.1060;0.5290;-0.1410;-0.2670;0.2397;-0.7101;1;1.1520;2.7803;9.0950;-0.2755;0.4948;0.3060;0.5283;-0.4323;-0.7325;6;9.6295;1.0517;0.9840;-1.4789;1.3676;0.1474;-1.1795;-0.0853;-0.1146;1;0;
289;0;-0.5031;2.4079;9.5547;-0.2625;0.4053;-0.1417;-0.2701;0.3152;-0.7078;1;1.0451;2.7823;9.5028;-0.3993;0.4930;0.2452;0.4983;-0.4263;-0.7385;6;9.7488;0.5969;1.2719;-1.2900;1.4881;0.2349;-1.2118;-0.0870;-0.1686;1;0;
290;0;-0.8089;2.1201;9.2610;-0.0842;0.1640;-0.4259;-0.2719;0.3335;-0.7240;1;1.1604;3.0124;9.5646;-0.1522;0.4643;0.2132;0.5163;-0.4143;-0.7385;6;9.7460;1.1655;1.1579;-1.4005;1.5428;0.6688;-1.1959;-0.0867;-0.1683;1;0;
291;0;-0.4500;2.1795;9.1499;-0.2046;0.2537;-0.2687;-0.2894;0.2960;-0.7429;1;1.3289;3.0688;9.3925;-0.3696;0.4918;0.0914;0.5103;-0.4023;-0.7325;6;9.4016;0.9382;0.9225;-1.1397;1.5367;1.0911;-1.1958;-0.0678;-0.1854;1;0;
292;0;-0.5623;2.4656;9.6113;-0.2053;0.1925;-0.2393;-0.3069;0.3357;-0.7092;1;1.1002;2.7817;9.3868;-0.2146;0.4310;0.0294;0.5103;-0.4023;-0.7325;6;9.6877;0.7105;1.0420;-1.1800;1.2668;0.8136;-1.1947;-0.0288;-0.1487;1;0;
293;0;-0.8104;2.4711;9.1983;-0.0743;0.5598;-0.1099;-0.3064;0.3747;-0.6745;1;1.3280;2.9536;9.3334;-0.4308;0.4918;0.1532;0.5223;-0.4263;-0.7265;6;9.9716;0.6533;1.0472;-1.5990;1.3658;0.2739;-1.1800;-0.0863;-0.1679;1;0;
294;0;-0.4405;2.2313;9.6747;-0.0784;0.2539;-0.0243;-0.2884;0.2965;-0.7262;1;1.2181;2.1494;9.5033;-0.5561;0.5197;-0.0306;0.5103;-0.4083;-0.7445;6;9.5226;0.8247;1.3252;-1.3952;1.1281;-0.1336;-1.1799;-0.0675;-0.1851;1;0;
295;0;-0.5106;2.5298;9.1444;-0.0463;0.3460;-0.0534;-0.2526;0.3528;-0.6888;1;1.3776;2.9516;8.9244;-0.4321;0.5536;0.1529;0.5223;-0.4203;-0.7205;6;9.5153;0.8243;0.9245;-1.6810;1.2533;-0.3699;-1.2122;-0.1062;-0.1692;1;0;
296;0;-0.6933;2.5315;9.0244;-0.3859;0.3732;-0.0793;-0.2884;0.2965;-0.7262;1;1.3928;2.4374;9.6836;-0.5869;0.5830;0.1536;0.5223;-0.4023;-0.7265;6;9.8017;0.3123;1.0438;-1.4172;1.3212;-0.8689;-1.1951;-0.0295;-0.1842;1;0;
297;0;-0.3220;2.8155;9.6111;-0.3848;0.3420;0.0738;-0.2887;0.3544;-0.6909;1;1.2156;2.3214;9.3869;-0.4022;0.5846;0.1218;0.5223;-0.4083;-0.7325;6;9.6288;0.8242;0.9266;-1.1240;1.1766;-1.4012;-1.2125;-0.1253;-0.1698;1;0;
298;0;-1.1046;2.1752;9.5470;-0.2045;0.0999;-0.0260;-0.2912;0.3142;-0.7591;1;1.0451;2.7823;9.5028;-0.4312;0.5866;0.3678;0.5163;-0.4203;-0.7385;6;9.7473;0.9949;1.2150;-0.4209;1.3335;-1.7282;-1.2445;-0.1264;-0.1882;1;0;
299;0;-0.1404;2.0565;9.6238;0.1056;0.1025;0.0932;-0.2513;0.2956;-0.7073;1;1.3271;2.8383;9.2743;-0.0014;0.5886;0.1194;0.5163;-0.4083;-0.7265;6;9.5213;0.9952;1.2681;0.1322;1.5185;-1.8970;-1.1641;-0.0860;-0.1676;1;0;
300;0;-0.6296;2.2957;9.2036;0.1046;0.0414;0.0918;-0.2879;0.3355;-0.6914;1;1.0993;2.6664;9.3277;-0.5527;0.4923;0.3383;0.5103;-0.4083;-0.7325;6;9.5203;0.9952;1.2108;0.4395;2.0073;-2.0252;-1.1805;-0.1243;-0.1514;1;0;
301;0;-0.7407;2.4644;9.7249;0.2559;-0.2019;0.1769;-0.2698;0.3347;-0.6904;1;1.2170;2.7820;9.5061;-0.1870;0.6495;0.2123;0.5103;-0.4023;-0.7325;6;9.9736;0.7102;1.1617;0.4150;2.2481;-1.8381;-1.1802;-0.1051;-0.1508;1;0;
302;0;-0.6241;2.1170;9.4978;0.1947;-0.1104;0.0874;-0.2531;0.3138;-0.7235;1;1.1024;2.7822;9.5039;-0.1888;0.6789;0.0585;0.5223;-0.4203;-0.7385;6;9.5732;0.7106;0.9827;0.2085;2.5175;-1.5225;-1.1793;-0.0480;-0.1667;1;0;
303;0;-0.5697;2.4707;9.2025;0.0687;-0.2029;-0.0053;-0.2701;0.3152;-0.7078;1;0.9887;2.9552;9.5611;-0.3709;0.5537;0.0911;0.5163;-0.4143;-0.7385;6;9.5205;0.8246;1.2107;-0.1305;2.4252;-1.4517;-1.2288;-0.1264;-0.2057;1;0;
304;0;-0.8638;2.1166;9.5520;-0.2407;-0.2366;-0.0021;-0.2881;0.3160;-0.7088;1;1.0966;2.9534;9.2118;-0.3793;0.8923;-0.0645;0.5223;-0.4263;-0.7385;6;9.7969;0.8239;0.8153;-0.3350;2.4339;-2.0600;-1.1956;-0.0860;-0.1327;1;0;
305;0;-0.5647;1.9425;9.4427;-0.1471;-0.2361;0.0890;-0.2827;0.2612;-0.6603;1;1.1584;2.8968;9.4470;-0.8141;1.0109;-0.1242;0.5043;-0.4023;-0.7385;6;9.2348;0.7111;1.0909;-0.5296;2.2856;-2.3319;-1.1641;-0.0860;-0.1676;1;0;
306;0;-0.5666;2.5269;9.3769;-0.3032;-0.2370;-0.0628;-0.2492;0.2968;-0.6738;1;1.6143;3.0681;9.3394;-1.1901;1.1582;-0.4916;0.5043;-0.4143;-0.7265;6;9.7425;0.6535;0.9286;-1.2888;1.6079;-1.7615;-1.1952;-0.0668;-0.1321;1;0;
307;0;-0.5072;2.3525;9.3218;-0.3332;-0.1454;-0.1220;-0.2845;0.2795;-0.6764;1;1.2224;2.8408;9.7993;-1.2537;1.3139;-0.3078;0.5103;-0.4203;-0.7505;6;9.2933;0.9954;1.2067;-1.7478;1.1946;-0.5220;-1.2279;-0.0877;-0.1867;1;0;
308;0;-0.5720;2.5889;9.0842;-0.2668;-0.0851;0.2168;-0.3232;0.3182;-0.6941;1;1.5529;2.8946;9.1032;-1.1894;1.1591;-0.3994;0.5163;-0.4203;-0.7265;6;9.2886;0.5403;0.9202;-2.1868;0.5730;0.3773;-1.2113;-0.0675;-0.1502;1;0;
309;0;-0.3198;1.9976;9.6798;0.2563;-0.1405;0.1168;-0.2899;0.3343;-0.7250;1;1.2156;2.9543;9.4483;-1.4036;1.1271;-0.2750;0.5223;-0.4203;-0.7325;6;9.2338;0.6542;1.0337;-2.3274;0.3225;0.8711;-1.1797;-0.0672;-0.1673;1;0;
310;0;-0.2115;2.2974;9.0358;0.3513;-0.1405;0.3308;-0.2711;0.3146;-0.7245;1;1.1630;2.7829;9.6808;-1.2424;0.8519;-0.1207;0.5223;-0.3963;-0.7325;6;9.4049;0.8246;1.0942;-2.3275;0.2616;0.8707;-1.1963;-0.1058;-0.1689;1;0;
311;0;-0.0771;2.0542;9.8001;0.2605;0.0731;0.1828;-0.3051;0.3174;-0.6931;1;1.3921;2.8400;9.6854;-1.1477;0.7604;-0.0900;0.5283;-0.4083;-0.7325;6;9.1778;0.8818;1.0900;-2.1647;0.1360;1.1413;-1.1800;-0.0863;-0.1679;1;0;
312;0;-0.6234;2.4081;9.5526;0.1685;0.0104;0.3364;-0.3069;0.3357;-0.7092;1;1.1041;3.1278;9.6226;-0.7458;0.7342;-0.0307;0.5163;-0.4143;-0.7265;6;9.6905;1.0518;1.2140;-1.8795;0.4378;1.3196;-1.2116;-0.0866;-0.1508;1;0;
313;0;-0.4468;2.1773;9.3251;0.0435;-0.1133;0.3968;-0.2868;0.3361;-0.6747;1;0.9828;3.1839;9.2692;-0.9931;0.7308;-0.1214;0.5163;-0.4263;-0.7205;6;9.5192;0.9951;1.1536;-1.6807;0.4013;1.7435;-1.2269;-0.0486;-0.1499;1;0;
314;0;-0.0855;2.0601;9.3329;0.0445;-0.1138;0.4890;-0.3049;0.3369;-0.6757;1;1.2170;2.7820;9.5061;-0.9325;0.7936;-0.0914;0.5223;-0.4203;-0.7385;6;9.8527;0.8238;0.7591;-1.8306;0.1551;1.9304;-1.1805;-0.1243;-0.1514;1;0;
315;0;-0.9894;2.0620;9.2586;-0.0141;0.0381;0.5546;-0.3041;0.3180;-0.6763;1;1.1616;2.9551;9.6230;-1.0257;0.8235;-0.0911;0.5043;-0.4203;-0.7265;6;9.6279;0.6536;0.8693;-1.6383;0.1521;2.1397;-1.1790;-0.0473;-0.1312;1;0;
316;0;-0.8108;2.7045;9.1953;-0.0479;-0.1763;0.6119;-0.3059;0.3363;-0.6925;1;0.9882;2.5523;9.5007;-0.9966;0.8851;-0.1531;0.5043;-0.4023;-0.7265;6;9.6222;1.0514;0.5834;-1.6424;0.3369;1.9877;-1.1961;-0.1055;-0.1511;1;0;
317;0;-0.5656;2.5845;9.4346;-0.2079;-0.4524;0.5156;-0.2500;0.3156;-0.6732;1;1.2162;2.6092;9.4468;-0.9334;0.8242;-0.1223;0.4983;-0.4143;-0.7265;6;9.8038;1.1654;1.2162;-1.9015;0.6164;1.5982;-1.1960;-0.0682;-0.2032;1;0;
318;0;-0.3161;2.3449;9.9090;-0.2375;-0.4533;0.6390;-0.2688;0.3353;-0.6736;1;1.2722;2.7239;9.3898;-0.8154;1.0092;-0.3085;0.5163;-0.4083;-0.7445;6;9.5171;0.9950;1.0391;-1.7450;1.1643;1.5979;-1.1323;-0.0853;-0.1670;1;0;
319;0;-0.8043;1.8254;9.4983;-0.3612;-0.4852;0.6706;-0.2879;0.3355;-0.6914;1;1.0475;2.6678;9.6195;-0.8445;0.9476;-0.2465;0.5163;-0.4023;-0.7145;6;9.5163;0.8244;0.9818;-1.5615;1.3483;1.5017;-1.2269;-0.0486;-0.1499;1;0;
320;0;-0.8638;2.8745;9.6009;-0.5444;-0.4572;0.8273;-0.3075;0.3741;-0.6913;1;1.3808;3.0099;9.1004;-0.7874;1.1964;-0.1561;0.5103;-0.4203;-0.7265;6;10.0324;0.7102;1.2772;-1.7591;1.4452;1.1089;-1.2279;-0.1062;-0.1518;1;0;
321;0;-0.8707;2.5295;9.1965;-0.5761;-0.4264;0.7053;-0.2881;0.3160;-0.7088;1;1.1004;2.6666;9.3863;-0.9086;1.0709;-0.2161;0.5163;-0.4083;-0.7385;6;9.6361;0.7676;1.3272;-1.7698;1.6331;0.7420;-1.1968;-0.1254;-0.1873;1;0;
322;0;-0.1935;2.2849;10.0286;-0.4544;-0.4552;0.5802;-0.3088;0.3540;-0.7254;1;1.2183;2.6672;9.5642;-1.5261;1.0635;-0.3354;0.5103;-0.4023;-0.7445;6;9.7434;0.7672;0.9859;-2.1748;1.4207;0.6910;-1.2117;-0.0682;-0.1858;1;0;
323;0;-0.5037;2.8748;9.5488;-0.5157;-0.3329;0.4298;-0.2706;0.3536;-0.6898;1;1.1581;3.0694;9.4477;-1.9941;1.2422;-0.5488;0.5103;-0.4143;-0.7445;6;9.8617;1.1085;1.2744;-2.6111;1.3915;0.6116;-1.2125;-0.1253;-0.1698;1;0;
324;0;-0.5622;2.4072;9.6120;-0.3620;-0.4541;0.5483;-0.3062;0.3168;-0.7098;1;0.9910;2.8982;9.6780;-1.9975;1.3331;-0.7337;0.5163;-0.4083;-0.7385;6;9.8608;0.9948;1.2171;-2.5897;1.6398;0.2750;-1.1957;-0.0863;-0.1505;1;0;
325;0;-0.6238;1.8835;9.5008;-0.2403;-0.4829;0.4231;-0.2541;0.3132;-0.7403;1;1.8474;2.7234;9.5180;-2.1198;1.3967;-0.4261;0.5283;-0.4143;-0.7265;6;10.1962;0.8804;0.9371;-2.5940;1.4893;0.1510;-1.2276;-0.0870;-0.1511;1;0;
326;0;-0.6844;2.2338;9.4953;0.1022;-0.2960;0.3921;-0.2897;0.3538;-0.7076;1;0.9341;2.6107;9.6756;-1.8098;1.3068;-0.4581;0.5103;-0.4023;-0.7505;6;9.2325;0.8247;0.9766;-2.7649;1.4359;-0.3667;-1.1958;-0.0678;-0.1854;1;0;
327;0;-0.5610;2.2898;9.6719;0.0106;-0.0820;0.1519;-0.3077;0.3546;-0.7087;1;1.0432;2.6092;9.3849;-1.7133;1.1858;-0.2736;0.5103;-0.4083;-0.7265;6;9.5171;1.0519;1.0392;-3.0390;1.0679;-0.1771;-1.1958;-0.0678;-0.1854;1;0;
328;0;-1.0452;1.9424;9.4926;-0.1399;0.2531;0.0072;-0.3025;0.2802;-0.6775;1;1.1664;2.7261;9.8563;-1.4628;1.0343;-0.2127;0.5343;-0.4083;-0.7265;6;10.0314;0.7102;1.2200;-3.3695;0.9717;0.1700;-1.1956;-0.0675;-0.1677;1;0;
329;0;-0.5633;2.4663;9.5529;-0.1706;0.2835;-0.0225;-0.3043;0.2985;-0.6937;1;1.3352;2.6100;9.6833;-1.1470;0.7295;-0.0898;0.4923;-0.3903;-0.7385;6;9.8629;0.9948;1.3316;-3.6127;0.8781;0.3302;-1.1958;-0.0678;-0.1854;1;0;
330;0;-0.9238;2.7579;9.6013;-0.7902;0.2472;-0.1385;-0.2925;0.3715;-0.7406;1;0.8779;2.6111;9.7331;-0.6828;0.6730;-0.0307;0.5223;-0.4203;-0.7325;6;10.1933;0.7096;0.7653;-3.7977;0.5120;0.3943;-1.2269;-0.0486;-0.1499;1;0;
331;0;-0.3881;2.4698;9.2641;-0.7899;0.1856;-0.0168;-0.2698;0.3347;-0.6904;1;1.6164;2.4932;9.3954;-0.1813;0.3392;0.0912;0.5163;-0.4203;-0.7325;6;10.1916;0.4252;0.6506;-4.2043;0.3918;0.2826;-1.1956;-0.0860;-0.1327;1;0;
332;0;-0.5082;2.2948;9.2641;-0.4523;0.1592;-0.1754;-0.2899;0.3343;-0.7250;1;1.2183;2.6672;9.5642;-0.0633;0.5559;-0.0029;0.5163;-0.4083;-0.7385;6;9.8540;0.5964;0.8162;-4.3046;0.1210;0.0683;-1.1945;-0.0284;-0.1309;1;0;
333;0;-0.3804;2.2895;9.6751;-0.0828;0.0711;-0.1512;-0.3224;0.2993;-0.6947;1;1.3870;2.6086;9.3915;-0.5291;0.6422;-0.1851;0.5043;-0.4023;-0.7325;6;9.8600;0.8241;1.1597;-4.6726;-0.2625;-0.7841;-1.2112;-0.0487;-0.1674;1;0;
334;0;-0.0835;2.8750;9.4978;0.4589;-0.5633;-0.5100;-0.2889;0.3349;-0.7082;1;1.0357;2.4924;8.9743;-0.9352;0.8536;-0.2762;0.5163;-0.4203;-0.7325;6;9.6894;1.0518;1.1568;-4.8788;-0.8016;-1.3969;-1.1956;-0.0675;-0.1677;1;0;
335;0;-0.2031;2.3499;9.5023;0.9218;-0.6200;-0.4556;-0.3075;0.3741;-0.6913;1;1.0915;2.7221;8.9179;-1.4761;1.5890;-0.4003;0.5283;-0.4083;-0.7325;6;10.0847;0.9375;1.0495;-4.4053;-1.1570;-2.0899;-1.1793;-0.0480;-0.1667;1;0;
336;0;-0.5685;2.3533;9.2623;-0.4141;-1.2146;-0.2672;-0.2881;0.3160;-0.7088;1;1.1560;3.0114;9.3303;-2.1045;2.0759;-0.5531;0.5223;-0.4143;-0.7505;6;9.5719;0.9380;0.9257;-3.7281;-0.9111;-2.2618;-1.2283;-0.1069;-0.1873;1;0;
337;0;-0.3861;2.5850;9.3794;-0.7256;-1.4320;-0.1757;-0.2500;0.3156;-0.6732;1;1.2110;2.4354;9.1531;-2.3352;2.8804;-0.2493;0.5103;-0.4143;-0.7445;6;9.2400;0.7113;1.3771;-2.9471;-0.4265;-2.0969;-1.2279;-0.0877;-0.1867;1;0;
338;0;-0.7402;2.1142;9.7293;-0.2637;-1.3960;-0.3653;-0.2711;0.3146;-0.7245;1;0.7003;2.7826;9.4376;-2.7431;3.1849;-0.3102;0.5283;-0.4143;-0.7445;6;9.3540;0.3131;1.3789;-1.9527;0.4865;-2.0887;-1.2276;-0.0685;-0.1861;1;0;
339;0;-0.3260;1.8853;9.3308;-0.5683;-1.2778;-0.1436;-0.2516;0.3534;-0.6720;1;1.0951;2.5503;9.0928;-3.2689;3.2726;-0.2769;0.5283;-0.4203;-0.7385;6;9.5835;0.8248;1.5551;-0.4807;1.4383;-2.6782;-1.1963;-0.1058;-0.1689;1;0;
340;0;-0.6862;2.0018;9.3814;-0.9961;-1.1611;0.1103;-0.3263;0.3164;-0.7444;1;1.2828;2.3236;9.9152;-2.9886;3.1838;-0.1551;0.5043;-0.4083;-0.7325;6;9.4079;0.9385;1.2659;0.4132;1.9891;-2.8849;-1.1952;-0.0483;-0.1670;1;0;
341;0;-0.4972;1.9957;9.8518;-0.4975;-0.8195;-0.0115;-0.3054;0.2979;-0.7104;1;1.1581;2.4365;9.3863;-2.3015;2.7892;-0.1260;0.5163;-0.4143;-0.7385;6;9.6877;0.7105;1.0420;0.0797;2.4284;-1.6730;-1.1640;-0.0672;-0.1848;1;0;
342;0;-0.5682;2.1782;9.2645;-0.7976;-0.2726;-0.0267;-0.2698;0.3347;-0.6904;1;1.2161;2.6667;9.4470;-1.8548;2.1776;0.1208;0.5043;-0.4203;-0.7325;6;9.4593;0.9951;0.9809;-1.0510;2.9392;-1.2049;-1.2445;-0.1264;-0.1882;1;0;
343;0;-0.5641;2.2336;9.4974;-1.0408;0.5230;-0.8982;-0.2889;0.3349;-0.7082;1;1.2141;2.5512;9.3294;-1.3103;1.3197;0.3686;0.5103;-0.4143;-0.7265;6;9.8570;0.6534;0.9879;-2.1228;3.0857;-0.8029;-1.2117;-0.0682;-0.1858;1;0;
344;0;-0.6236;1.7668;9.5022;0.4116;1.3987;-2.1891;-0.3420;0.3379;-0.6945;1;1.4448;2.9539;9.4527;-1.3292;0.8584;0.6480;0.5163;-0.4143;-0.7265;6;9.9125;0.8239;0.9318;-2.9391;3.0457;-0.1335;-1.2273;-0.0493;-0.1855;1;0;
345;0;-0.3198;1.9976;9.6798;1.5803;1.5973;-2.9683;-0.2863;0.2977;-0.6926;1;1.2188;2.3797;9.5629;-1.0987;0.2758;0.9267;0.5163;-0.4203;-0.7325;6;9.8038;0.3124;1.1583;-3.4399;2.4546;0.7678;-1.2116;-0.0866;-0.1508;1;0;
346;0;-0.2638;2.7001;9.4968;2.4946;1.3349;-3.7236;-0.3064;0.2973;-0.7272;1;1.5053;2.3792;9.5684;-0.1916;-0.2700;1.0783;0.5163;-0.4023;-0.7325;6;10.2020;0.4256;1.2229;-4.2798;2.0599;0.6976;-1.2592;-0.0873;-0.1340;1;0;
347;0;-0.3856;2.1765;9.3845;1.1675;1.0750;-3.2205;-0.2683;0.2969;-0.6916;1;1.1564;2.7813;9.3293;0.1245;-0.5428;1.3239;0.5103;-0.4083;-0.7385;6;10.0868;0.9376;1.1640;-5.0268;1.6798;-0.3893;-1.1793;-0.0664;-0.1318;1;0;
348;0;-0.6217;2.6984;9.6657;0.6470;1.1908;-2.9654;-0.2866;0.2783;-0.7100;1;1.3991;2.6115;10.0359;0.6246;-0.8784;1.2615;0.5103;-0.4023;-0.7265;6;9.9077;0.4824;0.6454;-5.3676;1.3126;-2.3794;-1.1957;-0.0863;-0.1505;1;0;
349;0;-0.1394;2.1141;9.6815;0.6174;0.9746;-2.5085;-0.2510;0.3150;-0.6900;1;0.8180;2.8982;9.6161;1.2130;-1.0279;1.1667;0.5223;-0.4203;-0.7265;6;10.0271;0.8238;0.9912;-4.8321;0.6974;-4.0596;-1.1945;-0.0284;-0.1309;1;0;
350;0;-0.1456;1.9434;9.3333;0.3180;1.2444;-2.0375;-0.2871;0.3166;-0.6920;1;1.3873;2.4361;9.3907;1.7079;-1.0526;1.2869;0.5103;-0.4023;-0.7265;6;10.2549;1.0510;1.0527;-3.8445;0.0431;-5.1392;-1.2436;-0.0877;-0.1692;1;0;
351;0;-0.4425;2.1160;9.5594;0.3550;1.3960;-1.6964;-0.2899;0.3343;-0.7250;1;1.3953;2.8983;9.8614;2.1056;-0.8618;1.4063;0.5103;-0.4083;-0.7445;6;10.3095;1.0508;0.9393;-4.1844;-0.3839;-5.0710;-1.2112;-0.0487;-0.1674;1;0;
352;0;-0.7450;2.4673;9.4913;0.2059;1.5152;-1.3844;-0.2863;0.2977;-0.6926;1;1.4412;2.4927;9.2163;1.6789;-1.0823;1.4409;0.5163;-0.4083;-0.7265;6;10.1960;1.0510;0.9372;-6.2176;-0.5258;-3.6592;-1.1790;-0.0288;-0.1661;1;0;
353;0;-0.6866;2.2936;9.3778;0.4303;1.6371;-0.8003;-0.2698;0.3347;-0.6904;1;0.9876;2.9549;9.5025;1.3608;-0.6533;1.3787;0.5163;-0.4143;-0.7325;6;10.4220;1.0507;0.8842;-7.4257;-0.4649;-3.6533;-1.1643;-0.0863;-0.1854;1;0;
354;0;-0.5033;1.7666;9.5043;0.4333;1.6974;-0.6145;-0.2691;0.3158;-0.6910;1;1.2126;2.7810;9.2718;1.5139;-0.5896;1.4082;0.5283;-0.4023;-0.7385;6;9.4609;1.3932;1.0956;-7.3594;-0.2391;-4.5446;-1.1802;-0.0867;-0.1857;1;0;
355;0;-0.8148;2.5907;8.9632;0.0322;1.2932;0.0584;-0.2188;0.3305;-0.7376;1;1.1631;2.7253;9.6805;0.4344;-0.5694;1.4451;0.5043;-0.4143;-0.7565;6;9.6376;1.2796;1.4421;-6.2203;-0.1443;-4.7930;-1.1632;-0.0658;-0.1137;1;0;
356;0;-0.7457;2.2346;9.4358;-0.4354;0.9519;0.1799;-0.3054;0.2979;-0.7104;1;2.0632;2.1445;8.7583;0.9255;-0.4401;1.5029;0.5283;-0.4023;-0.7265;6;9.5778;1.2226;1.2693;-4.9776;0.0674;-4.7056;-1.2113;-0.0675;-0.1502;1;0;
357;0;-0.8060;2.2930;9.4340;-0.3666;1.0419;0.7038;-0.3046;0.3564;-0.6583;1;1.9405;1.7401;8.2856;2.3629;-0.3767;0.1113;0.5223;-0.4083;-0.7385;6;9.6407;1.2797;1.6138;-4.2060;0.8307;-4.8762;-1.2121;-0.1246;-0.1343;1;0;
358;0;-0.3264;2.1771;9.3272;-0.6480;0.7945;0.7635;-0.3100;0.3339;-0.7596;1;1.1030;1.8042;9.4410;3.9066;-0.8665;-1.0318;0.5103;-0.4203;-0.7265;6;9.2373;1.1662;1.2630;-3.8747;1.4752;-5.2497;-1.1963;-0.1058;-0.1689;1;0;
359;0;-0.5068;2.0606;9.3255;-0.5244;0.7034;0.9137;-0.2873;0.2971;-0.7094;1;1.6184;1.9184;9.4514;2.5004;-1.0244;0.1451;0.5223;-0.4023;-0.7325;6;9.5228;1.5071;1.3829;-2.9314;2.2756;-5.8861;-1.1956;-0.0860;-0.1327;1;0;
360;0;-0.3255;2.2931;9.3841;-0.1950;0.2190;0.6838;-0.3224;0.2993;-0.6947;1;1.1556;2.6085;9.2699;2.2247;-1.0566;0.3005;0.5163;-0.4203;-0.7385;6;9.8012;1.6203;1.1021;-2.4988;2.9162;-5.9861;-1.1790;-0.0473;-0.1312;1;0;
361;0;-0.3896;2.0627;9.1524;0.4463;-0.2328;0.6967;-0.2703;0.2958;-0.7251;1;1.2117;2.6657;9.2127;0.6484;-0.8872;0.3088;0.5103;-0.4083;-0.7385;6;9.7519;1.5069;1.5016;-1.7487;3.4008;-5.8203;-1.1956;-0.0675;-0.1677;1;0;
362;0;-0.3816;2.4070;9.6152;0.0142;-0.3912;0.9755;-0.2330;0.3142;-0.6889;1;0.8839;4.3385;10.2095;-0.9451;-1.0105;5.3278;0.5163;-0.4083;-0.7205;6;9.1245;0.5976;1.2605;-1.1540;3.9626;-4.6659;-1.1802;-0.0867;-0.1857;1;0;
363;0;-0.7441;2.6417;9.5475;-0.0765;-0.3929;1.1611;-0.3219;0.3383;-0.6600;1;1.6061;3.3538;8.9306;-4.1849;0.5897;1.4961;0.5223;-0.4203;-0.7325;6;8.9550;0.8253;1.3147;-0.6828;4.3558;-4.4925;-1.2280;-0.0692;-0.2216;1;0;
364;0;-0.8760;2.5332;8.9045;-0.4761;-0.3978;1.3505;-0.2871;0.3166;-0.6920;1;1.1652;3.4738;9.8596;1.3360;0.9591;-1.3964;0.5103;-0.3963;-0.7265;6;9.1233;0.7682;1.2034;-0.0344;4.7225;-4.6012;-1.2269;-0.0671;-0.1150;1;0;
365;0;-0.7478;2.2361;9.3190;-0.2583;-0.3039;1.3498;-0.3051;0.3174;-0.6931;1;1.2156;2.9543;9.4483;-1.7847;1.5220;-0.6132;0.4983;-0.4203;-0.7325;6;8.8404;0.8823;1.2555;0.1667;4.8518;-5.1286;-1.1959;-0.0867;-0.1683;1;0;
366;0;-0.2585;1.9385;9.7400;-0.1966;-0.1495;1.1064;-0.3074;0.2967;-0.7440;1;1.0470;3.0128;9.6210;0.1171;1.7832;-1.2097;0.5223;-0.4143;-0.7325;6;9.2482;0.8254;1.8350;0.1397;4.6061;-4.9761;-1.1959;-0.0867;-0.1683;1;0;
367;0;-0.6238;1.8835;9.5008;-0.1996;0.2209;0.2533;-0.3057;0.3558;-0.6751;1;1.1583;2.3215;9.3858;-4.4741;1.9301;-0.3232;0.4983;-0.4083;-0.7385;6;9.2891;0.9953;0.9777;0.1063;4.4099;-4.0240;-1.2115;-0.0678;-0.1680;1;0;
368;0;-0.6215;2.5233;9.6679;-0.1375;0.3752;0.0406;-0.2863;0.2977;-0.6926;1;1.3344;2.4372;9.6239;-3.1488;1.8161;-0.7298;0.5163;-0.4083;-0.7385;6;9.3524;0.7111;1.3220;-0.2116;3.5009;-2.1781;-1.2440;-0.1068;-0.1699;1;0;
369;0;-0.7450;2.4673;9.4913;-0.1085;0.2840;0.0075;-0.3242;0.3176;-0.7109;1;0.9925;2.6109;9.7353;-3.6979;1.6273;-0.4796;0.5103;-0.4023;-0.7445;6;9.6302;0.4830;0.9836;-0.3840;2.9170;0.3421;-1.1793;-0.0664;-0.1318;1;0;
370;0;-0.6826;2.4074;9.6099;0.0174;0.4073;0.0394;-0.3404;0.3001;-0.6957;1;1.2799;2.7257;9.7999;-2.8926;1.4815;-0.4220;0.5163;-0.3963;-0.7325;6;9.4585;0.8244;0.9235;-1.1113;2.5292;1.9279;-1.1951;-0.0480;-0.1493;1;0;
371;0;-0.6221;2.2322;9.6132;-0.0421;0.5595;0.0127;-0.2319;0.3148;-0.6722;1;0.8768;2.6108;9.6745;-2.2063;1.1811;-0.2399;0.5163;-0.4143;-0.7325;6;10.0820;0.6530;0.8776;-2.3413;2.1591;2.2690;-1.2274;-0.0682;-0.1683;1;0;
372;0;-0.1460;2.2353;9.3296;-0.2917;0.4658;-0.0785;-0.2892;0.3154;-0.7256;1;1.0462;2.7825;9.5614;-1.7053;0.8148;-0.2714;0.5163;-0.4083;-0.7205;6;9.6809;0.3690;0.6412;-3.7185;1.5561;1.8752;-1.2270;-0.0675;-0.1328;1;0;
373;0;-0.3853;2.0014;9.3867;-0.1986;0.8664;-0.6553;-0.2683;0.2969;-0.6916;1;0.9392;2.8996;9.9698;-0.4932;0.4267;-0.1226;0.5343;-0.4143;-0.7325;6;9.6768;1.1650;0.4701;-4.7641;0.1650;1.2501;-1.1961;-0.1055;-0.1511;1;0;
374;0;-0.5659;2.7596;9.4324;0.1715;0.9319;-0.8123;-0.2680;0.3164;-0.6742;1;1.4987;3.0105;9.2783;0.3131;0.3457;0.2419;0.5223;-0.4023;-0.7325;6;9.9682;0.8237;0.8757;-5.6999;-1.2340;1.1747;-1.1949;-0.0661;-0.0966;1;0;
375;0;-0.5687;2.5284;9.2601;0.0114;0.7482;-1.0603;-0.3049;0.3369;-0.6757;1;1.1049;2.6102;9.6203;0.9038;0.1991;0.4544;0.5103;-0.4023;-0.7385;6;9.4556;0.6537;0.7517;-6.2822;-2.0598;1.4621;-1.1954;-0.0671;-0.1499;1;0;
376;0;-1.1075;2.0024;9.3740;0.2275;0.6889;-0.9720;-0.2884;0.3739;-0.6735;1;0.9316;2.8402;9.5595;0.8457;0.1078;0.6704;0.5223;-0.4143;-0.7505;6;9.9184;1.1085;1.2755;-6.5607;-2.3343;1.4989;-1.1959;-0.0867;-0.1683;1;0;
377;0;-0.7480;2.3528;9.3176;-0.0852;0.3182;-0.7609;-0.3244;0.2981;-0.7282;1;1.6151;2.6080;9.3373;0.6253;0.3220;0.6705;0.5223;-0.3963;-0.7145;6;10.3138;0.9373;1.1682;-6.1066;-2.6036;1.1759;-1.1959;-0.0867;-0.1683;1;0;
378;0;-0.7544;2.4155;8.9664;0.2267;0.2893;-0.4271;-0.3226;0.2798;-0.7121;1;1.6193;2.7241;9.5722;0.3462;0.3171;0.4570;0.5103;-0.4203;-0.7385;6;9.6939;0.8245;1.3855;-4.9493;-2.3809;0.4978;-1.1799;-0.0675;-0.1851;1;0;
379;0;-0.6170;2.3453;9.9037;0.1602;-0.1708;-0.1595;-0.2711;0.3146;-0.7245;1;1.2243;2.3809;9.8558;0.8679;0.3828;0.2999;0.5223;-0.4083;-0.7385;6;9.7543;1.2227;1.6158;-4.1205;-1.9057;-0.8138;-1.1954;-0.0671;-0.1499;1;0;
380;0;-0.6266;2.4103;9.3774;-0.1461;-0.1750;0.0903;-0.3244;0.2981;-0.7282;1;1.6170;2.7811;9.4553;0.6796;0.5991;0.4841;0.5223;-0.4203;-0.7205;6;9.2999;1.5076;1.6077;-2.5944;-1.6511;-1.5949;-1.1795;-0.0668;-0.1496;1;0;
381;0;-0.6839;2.5832;9.5493;-0.0199;-0.1133;0.2438;-0.3036;0.2797;-0.6942;1;0.9833;2.8388;9.2677;0.3008;0.9651;0.3612;0.5163;-0.4143;-0.7565;6;9.8678;1.2225;1.6179;-1.6850;-0.9103;-2.3229;-1.1783;-0.0274;-0.0950;1;0;
382;0;-0.7470;2.4104;9.3752;-0.3854;0.0346;0.4977;-0.2724;0.3719;-0.7060;1;1.4391;3.0676;9.1603;-0.2870;1.0519;0.3642;0.5103;-0.4203;-0.7265;6;9.8618;0.9948;1.2743;-0.8274;-0.2656;-2.7122;-1.1963;-0.1058;-0.1689;1;0;
383;0;-0.6842;2.0587;9.4975;-0.1077;0.0991;0.3725;-0.2693;0.2964;-0.7084;1;1.3856;2.7809;9.3337;-0.5059;1.0774;0.0273;0.5163;-0.4143;-0.7385;6;9.6387;1.2227;1.4993;0.4422;0.7709;-2.8341;-1.1959;-0.0867;-0.1683;1;0;
384;0;-0.3815;2.2903;9.6167;0.1026;-0.0808;0.0892;-0.2709;0.3341;-0.7072;1;0.8201;2.9562;9.7335;-1.1640;1.4700;-0.2478;0.4983;-0.4143;-0.7385;6;9.7547;1.7345;1.6734;1.0364;1.1950;-2.6948;-1.1959;-0.1051;-0.1333;1;0;
385;0;-0.4999;2.4057;9.7299;0.1010;-0.1725;0.0873;-0.2855;0.2789;-0.6932;1;1.5093;2.6103;9.8038;-1.6099;1.9555;-0.7397;0.5163;-0.4143;-0.7385;6;9.2878;1.1658;0.9206;1.5817;1.5666;-3.1383;-1.2109;-0.0668;-0.1147;1;0;
386;0;-1.2282;2.1776;9.3697;-0.1519;-0.6032;0.2041;-0.3054;0.2979;-0.7104;1;1.2136;2.8387;9.3306;-2.1760;2.3485;-1.0767;0.5163;-0.4023;-0.7385;6;9.7483;0.9949;1.2722;1.9741;1.9676;-3.5156;-1.2115;-0.0678;-0.1680;1;0;
387;0;-0.9895;2.1787;9.2571;0.0050;-0.5719;0.3873;-0.3229;0.3377;-0.6767;1;1.2721;2.7814;9.3901;-2.3099;2.7783;-1.2629;0.5163;-0.4203;-0.7205;6;9.6882;1.1655;1.0996;2.3870;2.2982;-3.2180;-1.2121;-0.1246;-0.1343;1;0;
388;0;-0.5000;2.4641;9.7291;0.1902;-0.5392;0.3242;-0.2706;0.3536;-0.6898;1;1.8387;2.6063;9.0488;-2.1851;2.7180;-1.2325;0.5103;-0.4143;-0.7385;6;9.5224;0.9953;1.3253;1.6667;2.0434;-2.4303;-1.1809;-0.1250;-0.1869;1;0;
389;0;-0.3768;1.9372;9.8546;0.0341;-0.6016;0.2633;-0.2905;0.3727;-0.7070;1;1.2235;2.2082;9.7964;-2.5188;2.5308;-1.0451;0.5223;-0.4083;-0.7385;6;9.3437;1.0520;0.8644;1.2100;1.7959;-2.1421;-1.2119;-0.0685;-0.2035;1;0;
390;0;-0.4491;2.2955;9.2068;0.0964;-0.7242;0.5059;-0.2876;0.2777;-0.7268;1;1.1597;2.7821;9.5050;-2.4208;2.3801;-0.7375;0.5163;-0.4023;-0.7265;6;9.1809;0.9388;1.2618;0.5602;1.5821;-2.0936;-1.1802;-0.1051;-0.1508;1;0;
391;0;-0.3254;2.1764;9.3856;-0.1177;-0.7581;0.7539;-0.2881;0.3160;-0.7088;1;1.2230;2.4957;9.7977;-2.4486;2.1614;-0.9511;0.5163;-0.4083;-0.7265;6;9.6831;1.1084;0.8134;0.1642;1.5485;-1.8669;-1.1947;-0.0473;-0.1137;1;0;
392;0;-0.5638;2.0002;9.5003;-0.4597;-1.0682;1.0282;-0.2892;0.3154;-0.7256;1;1.4433;2.5508;9.3338;-3.0623;2.0317;-0.9160;0.5043;-0.4023;-0.7265;6;10.0295;1.3926;1.1633;-0.3465;1.1143;-1.3020;-1.2274;-0.0682;-0.1683;1;0;
393;0;-0.7450;2.4673;9.4913;-0.6153;-1.3154;1.3016;-0.2709;0.3341;-0.7072;1;1.6151;2.6080;9.3373;-3.0029;2.0930;-1.0396;0.5283;-0.4203;-0.7385;6;9.5698;0.9379;0.8112;-0.2819;1.0826;-1.2120;-1.2277;-0.1058;-0.1340;1;0;
394;0;-0.9318;2.4136;9.1385;-0.8332;-1.7475;1.8178;-0.3072;0.3162;-0.7266;1;1.5573;2.8957;9.3375;-3.2582;2.3334;-1.5005;0.5103;-0.4023;-0.7385;6;9.8577;0.9378;1.0454;-0.3458;0.7482;-1.2435;-1.1951;-0.0480;-0.1493;1;0;
395;0;-0.4425;2.1160;9.5594;-0.9927;-2.0546;1.8132;-0.2892;0.3154;-0.7256;1;1.2124;2.8960;9.2723;-3.5705;2.4839;-1.5917;0.5163;-0.4083;-0.7265;6;9.5760;0.9382;1.1546;-0.1663;0.5379;-1.4349;-1.2115;-0.0863;-0.1330;1;0;
396;0;-0.4361;2.1116;9.9098;-1.3084;-2.4855;1.8385;-0.2518;0.3339;-0.6894;1;0.9906;2.4378;9.6173;-3.5406;2.5149;-1.6228;0.5223;-0.4143;-0.7385;6;9.0034;0.8818;0.8580;-0.7761;0.5333;-1.1095;-1.1963;-0.1058;-0.1689;1;0;
397;0;-0.8633;1.7664;9.5564;-1.7505;-2.7935;1.4068;-0.2899;0.3343;-0.7250;1;1.2723;2.6663;9.3896;-3.7313;2.7597;-1.6846;0.5103;-0.4203;-0.7325;6;9.5143;0.7674;0.8673;-1.1103;0.7436;-0.9134;-1.2122;-0.1062;-0.1692;1;0;
398;0;-0.5645;2.5254;9.4937;-2.1282;-3.2557;1.4631;-0.2714;0.2952;-0.7419;1;0.9327;2.8405;9.6180;-3.5132;2.7648;-1.3786;0.5103;-0.4203;-0.7325;6;9.5117;1.1654;0.7531;-1.3566;1.2000;-0.9024;-1.1959;-0.1051;-0.1333;1;0;
399;0;-0.5015;2.8150;9.6663;-2.0436;-3.4053;0.9359;-0.2887;0.3544;-0.6909;1;1.3880;2.6664;9.4503;-3.3936;2.9519;-1.3497;0.5223;-0.4083;-0.7325;6;9.7960;0.7101;0.7580;-0.3446;1.1439;-1.2404;-1.1790;-0.0473;-0.1312;1;0;
400;0;-0.1388;2.4052;9.7362;-2.8265;-3.9316;0.7498;-0.2899;0.3343;-0.7250;1;1.3288;2.4935;9.3313;-3.7940;2.8848;-1.4699;0.5163;-0.3963;-0.7325;6;9.5616;0.8238;0.3533;0.5029;0.9704;-1.8817;-1.2435;-0.0873;-0.1515;1;0;
401;0;-0.6276;3.1106;9.3686;-3.2720;-4.2689;0.0408;-0.3080;0.3351;-0.7260;1;1.1577;2.6665;9.3874;-3.8255;2.9154;-1.4699;0.5043;-0.4203;-0.7385;6;10.1918;1.1077;0.7083;0.3868;0.4326;-2.5893;-1.1789;-0.0657;-0.0962;1;0;
402;0;-0.4454;1.9431;9.3864;-3.6590;-4.8811;-0.5520;-0.2142;0.2946;-0.6885;1;1.2715;2.4936;9.3302;-4.3802;2.9736;-1.2519;0.5223;-0.4023;-0.7265;6;10.0782;1.1647;0.7063;-1.1123;-0.1713;-2.9180;-1.1963;-0.1058;-0.1689;1;0;
403;0;-0.7994;2.1719;9.7859;-3.9507;-5.0935;-1.5063;-0.2325;0.3532;-0.6542;1;1.1579;2.5515;9.3868;-4.2171;2.6690;-0.9437;0.5103;-0.4083;-0.7385;6;9.5099;0.9379;0.6385;-2.6233;-0.9975;-2.6028;-1.2272;-0.0678;-0.1505;1;0;
404;0;-0.2693;2.0625;9.1545;-3.5174;-5.0588;-1.4803;-0.2691;0.3158;-0.6910;1;1.1085;2.4384;9.7953;-3.6498;2.3729;-0.1771;0.5163;-0.3963;-0.7265;6;9.6224;0.9377;0.5833;-4.1154;-1.1476;-2.7438;-1.2118;-0.0870;-0.1686;1;0;
405;0;-0.4348;1.9358;9.9704;-3.3505;-4.7240;-0.8292;-0.2881;0.3160;-0.7088;1;1.5029;2.4937;9.4518;-2.3992;1.9314;0.8323;0.5283;-0.4143;-0.7325;6;9.6340;0.8244;1.2128;-5.9901;-0.6382;-4.3122;-1.2118;-0.0870;-0.1686;1;0;
406;0;-0.3174;2.5207;9.8484;-2.7096;-3.9583;0.1634;-0.2884;0.2965;-0.7262;1;1.1702;2.4393;10.0307;0.2306;0.4845;1.9317;0.5103;-0.3963;-0.7265;6;9.4617;0.7677;1.0952;-5.9368;0.5530;-6.7319;-1.1956;-0.0675;-0.1677;1;0;
407;0;-0.4487;2.7617;9.2593;-3.2133;-3.1727;0.9557;-0.2719;0.3335;-0.7240;1;1.3392;2.2082;9.8572;6.0785;-1.4228;3.1686;0.5103;-0.4023;-0.7385;6;9.9694;0.7100;0.9328;-4.7228;2.1336;-8.7222;-1.1797;-0.0672;-0.1673;1;0;
408;0;-0.3876;2.1196;9.2685;-2.5447;-2.1286;1.2159;-0.3234;0.2987;-0.7115;1;1.2289;2.2670;10.0896;8.4393;-3.0840;4.7934;0.5103;-0.4083;-0.7265;6;9.7430;1.1085;0.9862;-4.4783;3.2468;-9.9498;-1.2122;-0.1062;-0.1692;1;0;
409;0;-0.4479;2.1780;9.2667;-1.5334;-1.4205;2.2642;-0.2881;0.3160;-0.7088;1;1.1632;2.6678;9.6803;10.4002;-4.9070;6.0834;0.5103;-0.4203;-0.7325;6;10.1960;1.1079;0.9373;-4.7575;4.2832;-10.0561;-1.2116;-0.0866;-0.1508;1;0;
410;0;-0.6279;2.5861;9.3168;-2.0370;-0.6658;3.1173;-0.2691;0.3158;-0.6910;1;1.3376;3.1284;9.8614;8.3410;-6.2462;7.3019;0.5103;-0.4263;-0.7325;6;10.1377;1.5060;0.8793;-6.0092;4.4575;-9.4641;-1.2279;-0.1246;-0.1168;1;0;
411;0;-0.3845;2.9337;9.4918;-1.0932;0.0748;3.5828;-0.3240;0.3371;-0.6935;1;0.7762;3.4773;10.4963;4.8148;-10.2690;10.8191;0.5163;-0.4083;-0.7385;6;9.4013;1.2226;0.9228;-8.5766;3.6021;-9.2405;-1.2125;-0.1438;-0.1349;1;0;
412;0;-0.4435;2.1167;9.5010;0.1285;0.7566;4.1359;-0.2887;0.3544;-0.6909;1;0.9430;3.2457;10.2057;-2.5509;-15.4246;13.1671;0.5283;-0.4143;-0.7385;6;9.6825;0.7103;0.7559;-12.1952;2.1843;-5.8555;-1.2598;-0.1441;-0.1003;1;0;
413;0;-0.7442;2.7000;9.5468;0.7254;1.2198;4.3537;-0.3600;0.3387;-0.6956;1;0.8843;2.7851;10.0853;-2.3565;-18.3815;14.1976;0.5163;-0.4143;-0.7385;6;9.7222;1.0507;-0.1585;-16.9666;0.4054;-0.6261;-1.1959;-0.1051;-0.1333;1;0;
414;0;-0.3286;2.2370;9.2096;1.3738;1.1957;4.3758;-0.2698;0.3347;-0.6904;1;5.1818;-2.1124;9.7359;3.8246;-24.4635;15.0888;0.5223;-0.4083;-0.7265;6;9.5081;0.7103;0.5238;-22.1334;-2.1693;4.9160;-1.2595;-0.1065;-0.1346;1;0;
415;0;-0.6221;2.2322;9.6132;1.1319;1.4063;4.5372;-0.3237;0.2793;-0.7288;1;2.0960;1.6344;10.4548;0.5233;-26.5016;9.1892;0.5103;-0.4143;-0.7265;6;9.4998;0.7099;0.0660;-26.7852;-4.4801;9.0313;-1.2284;-0.1072;-0.2051;1;0;
416;0;-0.3811;1.9985;9.6203;1.3368;2.2614;5.0452;-0.3062;0.3168;-0.7098;1;6.0528;-1.1331;10.4597;-20.1545;-32.3727;2.6772;0.4983;-0.4023;-0.7385;6;9.4433;0.4825;0.0648;-29.8083;-6.3146;9.6294;-1.2281;-0.1065;-0.1695;1;0;
417;0;-0.0755;1.7033;9.8629;1.2506;2.8422;4.7513;-0.3098;0.3534;-0.7422;1;1.4057;1.3033;13.3093;-18.3784;-43.9422;-19.1736;0.5103;-0.4143;-0.7505;6;9.6094;0.4822;-0.1610;-32.0516;-7.4232;6.2770;-1.1798;-0.1044;-0.1152;1;0;
418;0;-0.1451;2.4096;9.3858;1.5210;2.9405;3.8889;-0.3072;0.3162;-0.7266;1;1.5062;1.8176;12.6109;-1.9898;-50.6150;-19.8446;0.5043;-0.4143;-0.7325;6;9.6720;0.7667;0.1836;-31.6166;-8.0219;1.3120;-1.1957;-0.0863;-0.1505;1;0;
419;0;-0.5619;2.1738;9.6149;1.3599;2.9109;3.3060;-0.2873;0.2971;-0.7094;1;1.7761;1.1803;11.6763;6.4321;-57.3225;-22.0664;0.4983;-0.4143;-0.7385;6;9.7907;0.8236;0.4719;-32.7319;-6.4996;-0.8548;-1.2274;-0.0866;-0.1334;1;0;
420;0;0.0346;2.2350;9.3328;1.4705;2.5484;2.6509;-0.2528;0.3333;-0.7061;1;2.3444;1.3509;11.4537;-2.8533;-63.0562;-26.3716;0.4923;-0.4083;-0.7505;6;10.2004;0.8806;1.1660;-35.0117;-5.8045;-0.5045;-1.1963;-0.1058;-0.1689;1;0;
421;0;-0.3872;1.8278;9.2721;2.5266;3.0487;2.4332;-0.2868;0.3361;-0.6747;1;1.7905;1.7591;12.4990;3.7022;-68.2865;-30.5884;0.4803;-0.4023;-0.7385;6;9.8518;0.7100;0.7018;-38.3050;-5.3108;1.1651;-1.2106;-0.0476;-0.1140;1;0;
422;0;-0.1982;2.6380;9.7906;2.0642;3.6896;1.5303;-0.3069;0.3357;-0.7092;1;2.0177;1.6431;12.3857;9.5872;-71.9967;-33.5812;0.4863;-0.4083;-0.7445;6;9.7512;1.1657;1.4441;-39.3912;-4.7742;4.0903;-1.2110;-0.0483;-0.1496;1;0;
423;0;-0.5041;2.4086;9.4963;1.8194;4.1168;1.0813;-0.3111;0.4106;-0.7237;1;2.2281;1.0055;11.3328;9.3088;-73.2398;-37.1670;0.4743;-0.4203;-0.7505;6;9.2924;0.8248;1.1493;-39.5904;-4.0335;7.6359;-1.1788;-0.0469;-0.1134;1;0;
424;0;-0.4993;1.9972;9.7350;0.6381;3.9851;0.5705;-0.2379;0.3307;-0.7554;1;1.8946;1.4687;11.9141;8.6053;-74.0098;-42.5965;0.4803;-0.3903;-0.7325;6;9.5227;0.7109;1.3251;-37.9028;-3.9910;13.1780;-1.2270;-0.0675;-0.1328;1;0;
425;0;-0.5691;2.0622;9.2076;0.8063;3.3173;0.0003;-0.2881;0.3160;-0.7088;1;2.1306;0.6645;12.2078;31.1877;-70.1006;-42.8751;0.4563;-0.4023;-0.7385;6;9.2450;0.0291;1.6055;-35.5291;-4.1190;17.8685;-1.2273;-0.1051;-0.0984;1;0;
426;0;-0.3281;2.6448;9.2629;2.1332;2.0524;-1.0587;-0.2683;0.2969;-0.6916;1;0.3165;1.6366;10.2449;30.5046;-66.9517;-42.7363;0.4683;-0.3963;-0.7445;6;9.6388;0.3128;1.4413;-35.1723;-3.7288;20.3804;-1.1785;-0.0278;-0.1128;1;0;
427;0;-0.3856;2.1765;9.3845;0.0241;1.4504;-0.9530;-0.2330;0.3142;-0.6889;1;-2.1218;1.0003;8.4384;24.5299;-59.7679;-25.5687;0.4683;-0.4083;-0.7385;6;10.0929;0.2554;1.4496;-34.6149;-3.3470;21.3500;-1.1945;-0.0469;-0.0959;1;0;
428;0;-0.0882;2.4701;9.2110;-0.4068;1.5992;-1.0366;-0.2889;0.3349;-0.7082;1;-2.4662;1.4035;8.4336;19.0150;-50.1145;10.2046;0.4623;-0.4023;-0.7385;6;10.0956;0.5967;1.6216;-34.2849;-2.5031;21.9307;-1.2101;-0.0096;-0.1306;1;0;
429;0;-0.3185;1.8218;9.7404;-0.4354;1.7517;-1.0637;-0.2701;0.3152;-0.7078;1;-2.8711;-0.2653;8.0669;-4.8054;-21.3492;36.5106;0.4623;-0.3903;-0.7385;6;10.6028;0.0841;1.4016;-31.6630;-0.5763;23.4039;-1.2264;-0.0291;-0.1315;1;0;
430;0;-0.3251;2.0013;9.3878;-0.6460;2.3624;-1.4784;-0.3067;0.3552;-0.6919;1;-2.3478;-0.8972;8.4255;-4.2666;-7.6793;52.4081;0.4383;-0.4143;-0.7325;6;9.9878;0.1990;1.9053;-27.4260;1.0567;21.9997;-1.1947;-0.0288;-0.1487;1;0;
431;0;-0.5015;2.0570;9.6175;-0.1573;2.3082;-1.9162;-0.2861;0.3172;-0.6753;1;-2.5731;-1.2411;8.5953;-18.3917;-8.6335;61.6253;0.4443;-0.4143;-0.7445;6;10.3195;0.5394;1.4540;-22.9144;2.9035;18.4075;-1.2272;-0.0863;-0.1156;1;0;
432;0;-0.6823;2.9903;9.6610;-1.0225;2.2073;-1.7845;-0.2873;0.2971;-0.7094;1;-3.1631;-0.8990;7.7071;-28.5306;-11.9183;65.3314;0.4503;-0.4083;-0.7265;6;11.0650;0.2545;1.8680;-20.3912;4.5078;12.6298;-1.1958;-0.0678;-0.1854;1;0;
433;0;-0.8078;2.0610;9.3202;-1.4170;2.1696;-1.0731;-0.3051;0.3174;-0.6931;1;-4.1578;-0.3844;6.6363;-36.4992;-8.1907;65.9400;0.4383;-0.3963;-0.7325;6;10.3707;0.0273;1.1113;-19.3161;5.8341;7.1388;-1.2086;0.0674;-0.1104;1;0;
434;0;-0.6300;2.5292;9.2007;-1.5416;1.7381;-0.4965;-0.2889;0.3349;-0.7082;1;-4.1540;0.6521;6.9338;-47.9237;1.9390;63.8874;0.4443;-0.4023;-0.7205;6;10.0953;-0.0289;1.5639;-18.0374;6.2972;0.2828;-1.1773;0.0486;-0.1281;1;0;
435;0;-0.6827;2.5241;9.6084;-2.0054;1.5490;-0.2488;-0.3229;0.3377;-0.6767;1;-4.4889;1.2302;7.4570;-52.8964;13.4651;58.6534;0.4383;-0.4023;-0.7445;6;10.0932;0.0279;1.4494;-15.0150;5.5211;-7.1887;-1.1939;0.0099;-0.1297;1;0;
436;0;-0.6231;2.1746;9.5555;-2.0342;1.5171;-0.0031;-0.2688;0.2580;-0.7263;1;-3.7868;1.7502;8.2927;-50.6110;23.0187;49.5468;0.4263;-0.4023;-0.7205;6;9.5748;0.2557;1.0396;-11.1572;5.4930;-13.7575;-1.1620;-0.0079;-0.0941;1;0;
437;0;-0.3225;2.4077;9.5578;-1.7376;0.9409;-0.2653;-0.2703;0.2958;-0.7251;1;-2.8711;1.6909;8.2515;-47.5949;31.9009;37.3361;0.4383;-0.3963;-0.7265;6;9.0694;0.1428;1.3163;-7.3838;5.4160;-19.0337;-1.1783;-0.0089;-0.1299;1;0;
438;0;-0.6256;2.4095;9.4358;-1.7730;0.5733;-0.1191;-0.3046;0.3564;-0.6583;1;-2.5736;1.6930;8.8428;-43.7953;41.0222;23.4296;0.4203;-0.3963;-0.7265;6;9.0177;0.2568;1.6015;-6.7050;5.6726;-24.2147;-1.1944;-0.0281;-0.1131;1;0;
439;0;-0.4370;1.9956;9.8529;-1.2249;0.0285;-0.0148;-0.3062;0.3168;-0.7098;1;-2.2875;2.5555;8.9107;-38.5987;50.0747;10.5610;0.4383;-0.3843;-0.7385;6;9.5178;0.4832;1.0387;-5.9038;4.5439;-28.3043;-1.1781;-0.0086;-0.1122;1;0;
440;0;-0.2000;2.4060;9.6768;-1.3283;-0.4602;-0.2701;-0.2881;0.3160;-0.7088;1;-2.6847;2.9023;9.1389;-33.0361;58.6569;-0.1246;0.4503;-0.3903;-0.7325;6;9.5823;0.9385;1.4980;-5.2814;3.4903;-29.1303;-1.2257;-0.0092;-0.0954;1;0;
441;0;-0.7955;2.4024;10.0166;-0.8700;-0.5765;-0.5552;-0.2899;0.3343;-0.7250;1;-2.9146;2.6723;9.0749;-29.3222;65.4892;-7.4698;0.4743;-0.3903;-0.7325;6;9.3473;0.6540;1.0357;-5.0643;2.6544;-26.0089;-1.1786;-0.0281;-0.1306;1;0;
442;0;-0.8069;2.2354;9.3764;-0.5654;-0.7561;-0.6859;-0.2546;0.3516;-0.7223;1;-3.1397;2.8463;9.3056;-28.1155;71.6309;-9.9409;0.4623;-0.3722;-0.7325;6;9.4092;0.7111;1.3230;-5.5560;2.2304;-19.7592;-1.1933;0.0110;-0.0763;1;0;
443;0;-0.2039;2.1755;9.4461;-0.6911;-0.9410;-0.5961;-0.2863;0.2977;-0.6926;1;-2.6769;2.8466;9.5487;-27.2312;76.7501;-9.0240;0.4623;-0.3662;-0.7145;6;9.2291;0.1990;0.7472;-5.0457;1.8319;-13.1707;-1.1624;-0.0086;-0.1296;1;0;
444;0;-0.7450;2.5257;9.4906;-0.9989;-1.0369;-0.3482;-0.2691;0.3158;-0.6910;1;-1.6400;2.1557;9.7997;-28.0649;80.5994;-6.4916;0.4803;-0.3722;-0.7145;6;9.6830;0.3122;0.7556;-5.0793;1.8361;-9.2056;-1.1942;-0.0277;-0.0953;1;0;
445;0;-0.7470;2.4104;9.3752;-0.9075;-1.1892;-0.2297;-0.2876;0.3550;-0.6741;1;-1.1782;2.0407;9.9838;-31.8276;81.8291;-3.1581;0.4863;-0.3782;-0.7025;6;9.4086;0.3129;1.2655;-5.4605;2.0089;-8.5167;-1.2262;-0.0103;-0.1487;1;0;
446;0;-0.1462;2.4103;9.3274;-1.3045;-0.8260;-0.3706;-0.2709;0.3341;-0.7072;1;0.0330;1.8679;10.4162;-35.5984;80.3321;-0.4537;0.5163;-0.3843;-0.6904;6;9.5191;0.2558;1.0958;-4.3502;2.2231;-10.7300;-1.1951;-0.0480;-0.1493;1;0;
447;0;-0.1440;2.3505;9.4450;-2.0194;-0.8621;-0.7314;-0.3059;0.3363;-0.6925;1;0.3731;2.0966;10.2481;-36.6741;77.8312;1.0733;0.4983;-0.3542;-0.7025;6;9.4045;0.2559;1.0365;-3.2643;2.1135;-13.7134;-1.2108;-0.0480;-0.1318;1;0;
448;0;-0.5032;2.5246;9.5532;-1.5308;-0.9779;-1.0784;-0.2737;0.3518;-0.7401;1;1.2457;2.0983;10.9675;-35.9852;77.5661;1.7161;0.5043;-0.3602;-0.6844;6;9.5178;0.4832;1.0387;-1.8721;1.5788;-16.7709;-1.2106;-0.0476;-0.1140;1;0;
449;0;-0.5619;2.1738;9.6149;-0.9434;-1.0029;-0.9940;-0.3273;0.3158;-0.7612;1;2.1642;1.6944;11.0419;-37.9343;79.0541;0.9812;0.5163;-0.3662;-0.6965;6;9.3460;0.0284;0.9208;-0.4796;1.1064;-17.7997;-1.1949;-0.0476;-0.1315;1;0;
450;0;-0.2575;1.9377;9.7984;-0.9096;-0.9423;-0.8086;-0.3054;0.2979;-0.7104;1;2.7441;2.1554;11.4651;-37.4087;79.5938;-1.3605;0.5283;-0.3662;-0.6784;6;9.2384;0.2563;1.2623;0.5540;0.7051;-17.4036;-1.2269;-0.0671;-0.1150;1;0;
451;0;-0.8036;2.1165;9.5530;-0.4688;-0.6953;-0.4090;-0.2518;0.3339;-0.6894;1;3.3177;2.3847;11.5357;-28.6632;77.3287;-5.1473;0.5464;-0.3542;-0.6724;6;9.3544;0.8249;1.4365;1.8979;0.5487;-14.9867;-1.1942;-0.0277;-0.0953;1;0;
452;0;-0.6906;2.1214;9.1464;-0.3393;-0.5734;-0.0389;-0.2884;0.2965;-0.7262;1;3.6611;1.9813;11.4819;-20.4943;71.5269;-9.5856;0.5584;-0.3542;-0.6664;6;9.4146;0.5407;1.6090;3.4647;0.5276;-11.3769;-1.2267;-0.0483;-0.1321;1;0;
453;0;-0.2081;2.1201;9.2132;-0.9850;-0.5197;0.1549;-0.2936;0.3709;-0.7574;1;2.9030;1.9794;10.7646;-13.7742;64.3201;-13.8840;0.5704;-0.3602;-0.6604;6;9.8689;0.3695;1.6172;2.8388;0.1213;-8.5036;-1.2105;-0.0288;-0.1312;1;0;
454;0;-0.4972;1.9957;9.8518;-1.7891;-0.4659;-0.0184;-0.2704;0.3731;-0.6725;1;2.3168;2.0348;10.0509;-12.7157;58.2686;-17.3878;0.5704;-0.3542;-0.6304;6;9.9753;0.1416;1.2185;2.2675;0.1291;-6.9193;-1.1962;-0.1243;-0.1339;1;0;
455;0;-0.5576;2.1709;9.8485;-1.7781;-0.0090;0.2989;-0.2884;0.2965;-0.7262;1;2.3141;2.3219;9.9350;-13.2702;54.3720;-20.1268;0.5704;-0.3542;-0.6244;6;9.9144;0.1415;0.9885;3.0791;0.7664;-6.7848;-1.2115;-0.0678;-0.1680;1;0;
456;0;-0.4472;2.4691;9.3214;-0.0518;0.2559;-0.4244;-0.2889;0.3349;-0.7082;1;2.6719;2.4972;10.7040;-9.5234;51.4215;-22.3128;0.5704;-0.3482;-0.6364;6;10.1978;-0.4276;0.9361;4.8661;1.3486;-9.1997;-1.2127;-0.1257;-0.1876;1;0;
457;0;-0.4403;2.0562;9.6769;-0.1054;0.6826;-0.3222;-0.2665;0.2787;-0.6754;1;3.2647;3.1338;11.8308;8.0201;44.2632;-26.6441;0.5884;-0.3542;-0.6064;6;9.8031;-0.8251;1.0429;6.8827;2.1528;-12.2344;-1.2106;-0.0476;-0.1140;1;0;
458;0;-0.4436;2.1751;9.5003;0.2076;1.0531;-0.5026;-0.3051;0.3174;-0.6931;1;4.2940;3.0165;11.7330;29.6540;33.5259;-34.5728;0.6124;-0.3782;-0.6064;6;9.6334;-0.4268;1.0974;7.6277;2.8067;-13.2655;-1.1785;-0.0278;-0.1128;1;0;
459;0;-0.3259;2.5849;9.3804;-0.3757;1.4148;-0.7335;-0.2902;0.3148;-0.7423;1;4.7836;2.0890;10.2742;37.9668;23.9447;-43.1060;0.5884;-0.3542;-0.6064;6;9.5163;-0.8818;0.8660;6.6616;2.8702;-13.4512;-1.2111;-0.0671;-0.1324;1;0;
460;0;-0.2106;2.4134;9.0928;-0.5886;2.1188;-1.5151;-0.2894;0.3733;-0.6903;1;4.6448;1.4506;8.9219;32.0956;19.9695;-51.6197;0.5884;-0.3422;-0.5884;6;9.8579;-0.0291;0.9874;4.3180;2.5297;-13.0458;-1.1952;-0.0668;-0.1321;1;0;
461;0;-0.5607;2.8727;9.7229;-0.6754;2.8229;-2.0523;-0.2327;0.3337;-0.6716;1;5.4471;2.0246;8.9984;23.9318;19.6579;-59.3427;0.6064;-0.3422;-0.5704;6;9.5277;0.0287;1.5535;2.4252;2.3337;-12.0996;-1.1800;-0.1048;-0.1330;1;0;
462;0;-0.3773;2.3457;9.8495;-0.4527;3.6837;-2.7746;-0.2539;0.3327;-0.7229;1;4.8784;2.7745;9.2837;21.0815;17.8963;-65.9513;0.6004;-0.3542;-0.5764;6;9.1751;0.5404;0.9181;1.9522;1.9429;-10.3063;-1.1956;-0.0860;-0.1327;1;0;
463;0;-0.2610;2.1734;9.6202;1.2852;4.7744;-3.6953;-0.3100;0.3339;-0.7596;1;5.2298;2.1429;9.6389;17.0293;12.5881;-70.2583;0.5884;-0.3482;-0.5704;6;9.4130;0.1425;1.4943;2.0739;1.8540;-8.3439;-1.1952;-0.0853;-0.0972;1;0;
464;0;-0.3793;2.2304;9.7342;1.4777;5.6346;-4.3557;-0.2899;0.3343;-0.7250;1;5.5090;1.9105;9.2333;16.3356;5.1027;-73.0053;0.5944;-0.3482;-0.5704;6;9.5740;0.0282;0.9822;3.0866;1.9819;-6.6524;-1.2274;-0.0866;-0.1334;1;0;
465;0;-0.3785;2.4048;9.7904;1.5398;6.2810;-5.3266;-0.2541;0.3132;-0.7403;1;4.4016;1.2751;8.1551;9.1910;-1.4092;-73.7233;0.6124;-0.3422;-0.5584;6;9.9240;-0.0287;1.5035;5.5345;2.0588;-5.6495;-1.2749;-0.0873;-0.1166;1;0;
466;0;-0.3771;2.1706;9.8517;-0.7957;6.2039;-6.9904;-0.2698;0.3347;-0.6904;1;4.0895;0.8093;6.7416;-8.3641;0.8023;-72.6197;0.6004;-0.3302;-0.5524;6;9.8017;0.3123;1.0438;7.3808;2.3551;-5.0878;-1.1951;-0.0480;-0.1493;1;0;
467;0;-0.7478;2.2361;9.3190;-1.4029;5.8065;-8.2831;-0.2717;0.3530;-0.7066;1;3.9792;1.5009;7.0354;-36.7745;11.1804;-69.2276;0.5884;-0.3422;-0.5404;6;10.0827;0.0274;0.8771;8.9841;2.3283;-5.3511;-1.2111;-0.0671;-0.1324;1;0;
468;0;-0.0197;2.5809;9.6777;0.7009;5.3034;-7.1825;-0.2871;0.3166;-0.6920;1;4.0692;1.7386;8.7950;-43.0319;20.6323;-66.7895;0.6064;-0.3302;-0.5404;6;10.0385;0.0280;1.5629;8.2104;2.4787;-7.3548;-1.2116;-0.1051;-0.1159;1;0;
469;0;-0.1429;2.3498;9.5034;-3.3644;4.9935;-8.4914;-0.2719;0.3335;-0.7240;1;4.5484;1.7427;9.9168;-35.7543;20.1776;-63.9110;0.6124;-0.3242;-0.5223;6;9.5786;-0.2560;1.2109;4.6749;2.3264;-9.4628;-1.1957;-0.1048;-0.1156;1;0;
470;0;-0.3171;2.2873;9.8513;-7.2668;6.3428;-11.5808;-0.2915;0.3721;-0.7238;1;4.7702;1.5680;9.5104;-25.4765;6.4297;-60.6944;0.6184;-0.3242;-0.5283;6;9.5249;-0.2558;1.3816;1.0585;2.0770;-11.1696;-1.1964;-0.1247;-0.1517;1;0;
471;0;0.2049;3.5830;8.8519;-8.1059;5.6597;-11.0007;-0.2889;0.3349;-0.7082;1;5.9498;1.2152;8.2432;-27.5710;-17.3485;-58.2672;0.6064;-0.3182;-0.5223;6;9.6912;0.4263;1.2135;-2.2071;1.7780;-11.5352;-1.1960;-0.1240;-0.1162;1;0;
472;0;-1.0228;1.8103;10.7205;-11.1492;6.9278;-14.5025;-0.2719;0.3335;-0.7240;1;6.1950;0.8159;9.0659;-41.7486;-44.0624;-55.4751;0.6064;-0.3182;-0.5163;6;9.6467;-0.1987;1.8416;-4.8044;2.1862;-12.4069;-1.2433;-0.0685;-0.1686;1;0;
473;0;-0.7661;3.3150;11.6984;-32.6713;20.6501;-23.5607;-0.3250;0.3365;-0.7103;1;5.6007;1.0995;7.9432;-48.9220;-63.4609;-51.8151;0.5944;-0.3122;-0.5223;6;9.5820;0.3129;1.4403;-2.0639;2.3001;-13.9937;-1.2115;-0.0863;-0.1330;1;0;
474;0;-2.9965;-0.3697;7.9113;-8.8635;29.4842;-26.2513;-0.2855;0.2789;-0.6932;1;4.3478;1.7938;8.3907;-58.4532;-68.1353;-45.2488;0.6064;-0.3062;-0.5343;6;9.9854;0.4264;1.7911;2.2634;3.1727;-15.4376;-1.1800;-0.1048;-0.1330;1;0;
475;0;-0.7288;2.2812;10.3695;-25.4479;27.9929;-23.7382;-0.2853;0.2983;-0.6759;1;12.4630;23.2628;15.5536;-9.0365;-82.1214;-21.1828;0.5944;-0.2942;-0.5283;6;9.8728;0.5403;1.8463;5.3738;3.6228;-17.1250;-1.1958;-0.0678;-0.1854;1;0;
476;0;0.3856;2.7080;8.8077;-11.7854;31.7122;-25.6435;-0.3242;0.3176;-0.7109;1;-4.4879;15.0963;8.8081;203.8972;-54.0986;29.4264;0.5944;-0.3062;-0.5103;6;10.0949;0.3123;1.5641;5.1870;5.4648;-20.3621;-1.1961;-0.1055;-0.1511;1;0;
477;0;-0.6821;2.0572;9.6143;-17.8930;33.0925;-27.0131;-0.3216;0.2804;-0.6953;1;-5.1135;5.8218;5.1235;118.4257;-59.1966;60.3241;0.6004;-0.3122;-0.5103;6;9.6392;0.8246;1.4990;1.7893;6.7994;-22.1551;-1.2116;-0.1051;-0.1159;1;0;
478;0;-1.0313;2.6325;10.3014;-35.5912;39.4251;-28.0990;-0.2340;0.3136;-0.7057;1;-0.5041;6.1653;6.6190;18.4333;-59.6083;89.1314;0.5884;-0.3122;-0.5223;6;10.0360;1.2222;1.5066;-1.6689;8.7620;-18.9014;-1.1807;-0.1247;-0.1692;1;0;
479;0;-0.6690;4.1640;13.7908;-42.6790;44.4871;-28.6075;-0.2691;0.3158;-0.6910;1;5.5283;8.7617;10.9043;40.9280;-46.8756;73.6768;0.5884;-0.3242;-0.5343;6;10.4391;1.5632;1.8575;-2.0592;9.6415;-16.5472;-1.2439;-0.1253;-0.1349;1;0;
480;0;-0.6162;1.7783;13.2380;-6.8461;58.4466;-23.8031;-0.2894;0.3733;-0.6903;1;6.2293;2.0761;7.9597;15.0749;-13.7824;40.0984;0.5884;-0.3242;-0.5343;6;11.1130;1.3915;1.4693;-1.5217;10.4914;-14.2517;-1.1812;-0.1627;-0.1526;1;0;
481;0;-0.7969;1.9536;13.2326;-14.2296;68.5037;-22.1083;-0.2717;0.3530;-0.7066;1;5.3991;1.7392;9.4647;7.3149;-9.8421;4.2256;0.5764;-0.3242;-0.5163;6;11.3375;1.7892;1.3593;-3.3118;10.7755;-17.0845;-1.2279;-0.1246;-0.1168;1;0;
482;0;-0.6604;1.7090;14.1136;-1.1461;81.4653;-23.0985;-0.2536;0.3522;-0.7056;1;0.5292;2.9557;9.4937;-7.1317;-19.7176;-17.1714;0.5884;-0.3422;-0.5163;6;11.7309;1.5611;1.1375;-5.0680;8.6359;-18.5856;-1.1324;-0.1041;-0.1498;1;0;
483;0;-1.0208;1.9422;14.1627;8.4875;92.5115;-20.2119;-0.3090;0.3345;-0.7428;1;-1.2926;0.6026;9.8579;-23.8121;-11.6057;-14.3871;0.5764;-0.3302;-0.5103;6;10.8277;1.8467;1.4072;-3.2572;4.1361;-14.6808;-1.1970;-0.1257;-0.2050;1;0;
484;0;-1.3208;2.0586;14.2144;19.4700;106.2811;-22.5114;-0.2209;0.4067;-0.7185;1;0.9592;0.7755;10.8389;-10.3439;-1.8315;3.9128;0.5824;-0.3482;-0.5163;6;11.1780;1.5055;1.9283;2.8608;0.2489;-6.7824;-1.1805;-0.1428;-0.1165;1;0;
485;0;-0.8667;2.0353;16.0322;19.1292;120.9623;-22.1578;-0.2212;0.3872;-0.7359;1;1.7948;0.5383;9.5656;25.7005;-2.8901;0.0507;0.5884;-0.3362;-0.5223;6;10.9454;0.9937;1.5803;8.0318;-1.7823;5.4301;-1.2279;-0.1062;-0.1518;1;0;
486;0;-1.2514;1.5274;14.6892;34.1554;137.3724;-25.8961;-0.2010;0.3103;-0.7540;1;0.9945;2.0935;9.7915;28.1150;-2.6385;-2.1160;0.5764;-0.3302;-0.5223;6;10.2099;1.6772;1.7390;9.2799;-2.9560;10.8835;-1.1966;-0.1435;-0.1346;1;0;
487;0;-0.7790;1.9995;14.2246;25.9305;155.1771;-25.3142;-0.1631;0.2904;-0.7357;1;1.1161;1.8648;10.1442;27.2190;0.3283;1.9279;0.5704;-0.3362;-0.5103;6;10.0324;1.6202;1.3352;8.2622;-3.1875;10.0517;-1.1964;-0.1247;-0.1517;1;0;
488;0;-0.9978;2.1596;15.4446;24.9676;172.0204;-25.8284;-0.1662;0.2886;-0.7860;1;1.7358;2.2065;9.6306;33.7084;3.3199;3.8694;0.5824;-0.3302;-0.5343;6;10.3109;1.6765;1.0543;7.8865;-3.0174;10.9247;-1.2120;-0.1058;-0.1514;1;0;
489;0;-0.5811;1.6374;15.1666;30.3970;189.8983;-25.1702;-0.1652;0.2892;-0.7692;1;0.8091;2.2632;9.0860;23.0597;4.5873;2.2957;0.5644;-0.3422;-0.5283;6;9.6909;1.5068;1.2716;7.5231;-1.6483;13.0974;-1.1646;-0.1055;-0.1860;1;0;
490;0;-0.7387;1.0970;16.3964;25.4949;208.1248;-23.5751;-0.1691;0.3063;-0.8190;1;0.9316;2.1498;9.4978;14.6265;6.1328;4.8251;0.5704;-0.3242;-0.5163;6;9.6261;2.1321;0.8704;6.8733;-0.9173;13.0612;-1.1809;-0.1250;-0.1869;1;0;
491;0;-1.3181;0.9073;17.6144;31.3501;229.2255;-19.8384;-0.1139;0.3045;-0.7991;1;0.9864;2.3218;9.3825;13.9075;6.4306;4.3973;0.5884;-0.3302;-0.5283;6;9.9625;2.1316;0.6477;6.0723;-0.2070;8.0824;-1.1802;-0.1051;-0.1508;1;0;
492;0;-1.5501;-0.8477;17.9825;42.3037;248.2548;-12.7046;-0.0562;0.2656;-0.7636;1;0.9833;2.2060;9.2062;10.7327;6.0182;3.4658;0.5884;-0.3242;-0.5163;6;9.8519;2.3024;0.8175;3.1760;-0.1308;-1.5096;-1.1960;-0.1240;-0.1162;1;0;
493;0;-1.3424;0.1828;19.5493;60.3878;261.8519;-3.3794;-0.0583;0.2644;-0.7972;1;1.5545;1.9169;9.0988;7.8438;5.1746;2.4122;0.5884;-0.3302;-0.5163;6;9.8549;3.2125;1.0471;-3.1264;-0.6794;-9.9602;-1.1800;-0.0863;-0.1679;1;0;
494;0;-3.8127;-0.1619;19.3351;91.8980;263.7575;2.8477;0.0116;0.2406;-0.8440;1;0.9276;2.5516;9.3239;5.2568;4.6436;1.3858;0.5704;-0.3302;-0.5103;6;9.3549;2.9861;1.6099;-5.1093;-0.8927;-9.9333;-1.1949;-0.0476;-0.1315;1;0;
495;0;-4.3612;1.0098;19.0189;104.4671;262.8936;12.6970;0.0662;0.1998;-0.8588;1;0.9873;2.4370;9.4416;2.9741;4.5552;1.0617;0.5884;-0.3242;-0.5163;6;8.7350;2.7596;1.8272;0.9766;-0.2833;-1.4757;-1.2123;-0.1250;-0.1520;1;0;
496;0;-3.2269;1.5394;18.5652;108.7335;263.7078;17.6126;0.1224;0.1986;-0.8222;1;0.8752;2.2652;9.5558;2.5663;4.7010;0.5715;0.5824;-0.3182;-0.5283;6;8.3378;2.7601;1.8199;8.2298;0.8970;9.6245;-1.1960;-0.1240;-0.1162;1;0;
497;0;-4.0702;0.4914;18.4468;118.8619;264.8430;18.4942;0.1601;0.1593;-0.8213;1;1.0046;1.9808;10.3182;1.2111;4.6572;0.6719;0.5944;-0.3422;-0.5103;6;7.7038;2.1348;1.2356;12.0561;3.1033;14.9663;-1.2276;-0.0870;-0.1511;1;0;
498;0;-0.1946;-1.3960;19.7060;127.5158;274.6823;21.1518;0.2003;0.0828;-0.8048;1;1.0511;1.8631;9.7330;3.0095;4.5614;1.6760;0.5644;-0.3362;-0.5283;6;8.2696;1.8497;1.1313;12.5347;5.5800;14.1729;-1.1643;-0.0863;-0.1854;1;0;
499;0;5.0688;-2.3383;1.3066;197.4942;264.4122;38.8103;0.2696;0.1746;-0.7809;1;0.5945;2.0944;9.8424;5.3623;4.3436;2.2474;0.5824;-0.3482;-0.5163;6;8.4886;1.6216;0.6775;15.0583;6.4704;11.4927;-1.1648;-0.1243;-0.1688;1;0;
500;0;25.3794;-20.7767;-14.5661;126.7277;113.5540;46.1425;0.3278;0.0973;-0.7634;1;0.8761;2.3805;9.6149;7.0787;3.6251;2.8869;0.5884;-0.3362;-0.5223;6;8.8246;2.7015;0.5129;16.7746;5.6868;10.9435;-1.1800;-0.1048;-0.1330;1;0;
501;0;13.3213;-1.9125;8.5092;71.4896;20.0498;50.7430;0.3487;0.0788;-0.7294;1;1.1006;2.5516;9.3857;5.9821;2.8051;2.3758;0.5764;-0.3362;-0.5043;6;9.6256;2.5302;0.8707;20.4338;2.9441;13.3010;-1.1641;-0.0860;-0.1676;1;0;
502;0;8.2952;-3.5340;3.3045;-4.3394;-24.9444;50.8114;0.3856;0.0583;-0.7280;1;0.6447;2.3804;9.4933;5.8717;2.3439;2.7787;0.5764;-0.3482;-0.5163;6;10.4700;3.0976;0.5434;23.4490;-0.5622;17.9760;-1.1807;-0.1247;-0.1692;1;0;
503;0;13.4855;-5.4749;4.0621;-24.3228;-67.4829;55.8601;0.3493;0.0405;-0.7474;1;0.9326;2.2076;9.5566;6.2486;1.9119;2.4717;0.5824;-0.3362;-0.5103;6;10.9805;2.4714;0.4951;24.8377;-3.8799;20.1202;-1.2120;-0.1058;-0.1514;1;0;
504;0;11.9364;-3.0931;5.0557;-10.3498;-96.0125;57.6494;0.2724;0.0796;-0.8007;1;0.9349;2.1506;9.6735;6.0927;0.8039;3.1860;0.5764;-0.3602;-0.5163;6;10.9860;2.2441;0.7811;23.9168;-7.3598;18.7065;-1.1646;-0.1240;-0.1511;1;0;
505;0;9.7732;-3.3259;5.1958;-3.6464;-119.9537;68.7021;0.2740;0.0418;-0.8018;1;1.3340;2.6673;9.6250;6.1928;0.8463;4.2915;0.6004;-0.3302;-0.5043;6;10.2989;2.0741;0.4250;24.1034;-9.7562;13.8885;-1.1800;-0.1048;-0.1330;1;0;
506;0;10.1008;-4.3527;3.2881;-10.2705;-149.5704;81.3367;0.2905;0.0788;-0.7996;1;1.1128;1.8641;9.9684;9.9615;0.2588;3.4739;0.5764;-0.3302;-0.5163;6;9.9638;1.9041;0.7048;24.8412;-10.7637;7.7130;-1.1808;-0.1620;-0.1171;1;0;
507;0;9.6776;-3.7094;3.2143;-26.3978;-179.6606;95.6490;0.2539;0.1188;-0.7837;1;0.8204;2.0933;9.6711;6.6512;0.9094;3.9196;0.5644;-0.3422;-0.5223;6;9.6760;1.7906;0.4706;24.9480;-11.0924;5.1569;-1.1803;-0.1055;-0.1686;1;0;
508;0;9.0805;-3.3621;3.4913;-52.9062;-205.4073;105.8495;0.2343;0.0800;-0.8363;1;0.7714;2.3830;10.1399;7.6473;0.5823;4.2230;0.5764;-0.3362;-0.5103;6;9.3850;1.7337;0.0647;27.5701;-11.5279;5.8124;-1.1801;-0.1236;-0.1158;1;0;
509;0;9.0433;-2.3284;4.8202;-71.8150;-225.6439;110.5382;0.1810;0.0635;-0.8400;1;0.9907;2.3803;9.6171;8.1598;1.1762;4.3394;0.5704;-0.3362;-0.5103;6;8.9926;2.0188;0.3438;28.6088;-11.2307;6.3061;-1.1482;-0.0856;-0.1673;1;0;
510;0;8.3383;-1.0566;5.8426;-88.2053;-239.9034;110.4350;0.1598;0.1398;-0.8386;1;1.0522;2.4963;9.8530;8.8902;0.6072;5.5062;0.5884;-0.3302;-0.5163;6;9.4945;1.6197;-0.1623;27.5015;-10.9603;6.5564;-1.2121;-0.1246;-0.1343;1;0;
511;0;7.9880;-0.4222;6.4705;-98.5724;-248.0499;103.7765;0.0846;0.1412;-0.8931;1;1.0636;2.2688;10.4378;8.4603;0.1603;4.4973;0.5644;-0.3422;-0.5283;6;9.6079;1.6764;-0.1601;27.3643;-10.6958;5.0878;-1.1971;-0.1630;-0.1529;1;0;
512;0;7.6437;0.4413;7.4460;-107.8564;-250.0237;93.5477;0.0469;0.1805;-0.8940;1;0.5359;2.2668;9.7835;6.2576;0.2476;3.0347;0.5644;-0.3422;-0.5163;6;9.4440;1.6200;0.1801;27.1604;-10.1853;3.4386;-1.1950;-0.0664;-0.1143;1;0;
513;0;6.9461;0.9499;8.8283;-119.2061;-246.9349;81.6399;-0.0569;0.2071;-0.8157;1;0.5386;2.6127;9.9608;6.9915;0.9143;4.0713;0.5644;-0.3362;-0.5163;6;9.6177;1.3925;0.3547;26.7795;-9.2219;2.0443;-1.1791;-0.0661;-0.1140;1;0;
514;0;5.2108;1.2951;9.3772;-134.3785;-239.9732;70.2332;-0.0632;0.2809;-0.8637;1;1.1048;2.6677;9.6206;7.5857;0.6135;4.3154;0.5704;-0.3302;-0.5103;6;8.7573;1.9618;-0.1183;27.3084;-8.9806;0.0638;-1.1482;-0.1041;-0.1324;1;0;
515;0;3.4293;2.2720;10.7345;-155.7713;-228.6621;56.7537;-0.0980;0.3025;-0.8316;1;0.8733;2.0922;9.4378;6.0350;-0.6135;3.7787;0.5824;-0.3482;-0.5103;6;9.1570;1.6771;0.0032;28.4691;-8.3343;-2.5777;-1.2131;-0.1822;-0.1361;1;0;
516;0;2.6788;4.4667;12.6201;-179.1777;-214.8272;41.7243;-0.1341;0.3814;-0.7810;1;0.4857;1.9234;10.1323;7.6349;-0.7602;2.8790;0.5704;-0.3482;-0.5103;6;8.9927;1.9619;0.3437;29.0505;-7.4646;-5.9375;-1.1803;-0.1240;-0.1336;1;0;
517;0;2.0563;4.9066;14.8217;-189.5222;-203.4498;24.3556;-0.0944;0.4206;-0.6939;1;1.1058;2.0925;9.6180;5.0912;0.4011;4.1777;0.5704;-0.3362;-0.5103;6;8.3732;1.4510;0.5608;28.0749;-5.8439;-8.5995;-1.1805;-0.1243;-0.1514;1;0;
518;0;1.6145;5.2879;17.0273;-182.6876;-197.5879;7.3590;-0.1875;0.5196;-0.6793;1;1.0991;2.7814;9.3282;3.8489;0.5357;3.4159;0.5704;-0.3422;-0.4983;6;8.0873;0.5982;0.3832;27.2184;-4.2948;-8.3771;-1.1642;-0.1233;-0.1155;1;0;
519;0;0.0827;5.8502;18.8612;-165.3954;-195.4187;-8.0651;-0.1640;0.5412;-0.5771;1;1.8027;1.7484;10.0983;7.8739;-0.5769;2.3848;0.5884;-0.3542;-0.5163;6;8.1412;1.2805;0.2703;27.6825;-2.8781;-9.5474;-1.2127;-0.1442;-0.1527;1;0;
520;0;-1.6550;5.6139;19.2422;-134.6847;-192.6707;-20.2315;-0.1105;0.5772;-0.5560;1;1.1994;2.7779;8.5688;5.7702;0.1230;3.4686;0.5584;-0.3362;-0.4983;6;8.0283;1.5650;0.3257;30.0906;-1.4735;-12.0051;-1.1654;-0.1627;-0.1701;1;0;
521;0;-2.0965;4.9288;18.0756;-117.0601;-190.9831;-29.7962;-0.0703;0.5780;-0.4869;1;0.2463;2.7844;9.6632;3.0271;0.9462;1.9433;0.5704;-0.3482;-0.5163;6;8.3615;1.6212;-0.0686;31.3621;-0.5146;-13.0803;-1.1647;-0.1613;-0.0990;1;0;
522;0;-2.9328;4.9839;18.4105;-115.2373;-185.7008;-37.9467;-0.0169;0.5945;-0.4832;1;0.6437;2.3226;9.4345;7.9620;0.8720;1.8226;0.5644;-0.3362;-0.5043;6;8.8736;1.3931;-0.0022;32.9147;0.2778;-11.0307;-1.1806;-0.1616;-0.0993;1;0;
523;0;-3.8134;5.7860;19.6691;-108.9210;-169.1041;-50.6138;-0.0015;0.6309;-0.4977;1;0.5886;2.3807;9.5508;3.8091;-1.1204;1.6437;0.5704;-0.3542;-0.5043;6;8.9905;1.1656;0.1714;32.9445;1.0882;-8.1059;-1.2125;-0.1438;-0.1349;1;0;
524;0;-5.1806;7.1754;20.6784;-89.8079;-139.8423;-64.6124;0.0532;0.5901;-0.5126;1;1.0446;2.4369;9.4427;3.0881;-0.5076;1.8287;0.5764;-0.3422;-0.5103;6;9.4473;1.5064;0.3517;32.3770;2.3438;-6.5117;-1.1502;-0.2007;-0.1710;1;0;
525;0;-6.7484;7.8209;20.5260;-56.5875;-115.1376;-81.0397;0.0717;0.5510;-0.5295;1;0.7082;2.6694;9.8472;3.1727;-0.0721;2.0099;0.5764;-0.3542;-0.5043;6;8.9833;1.1084;-0.2293;32.5406;3.3311;-5.3103;-1.1656;-0.1630;-0.1878;1;0;
526;0;-7.6482;7.9200;17.3569;-24.3706;-104.0541;-95.1970;0.0648;0.5663;-0.6296;1;1.0996;2.4938;9.3269;2.7360;0.1075;1.8578;0.5824;-0.3362;-0.5103;6;8.8179;1.3932;0.0540;34.8033;4.0928;-5.3719;-1.1981;-0.2205;-0.1548;1;0;
527;0;-9.2657;8.4832;14.4612;-13.2150;-93.1331;-100.0209;0.0776;0.5625;-0.7124;1;2.6582;3.4145;10.0637;6.6655;-1.8599;2.0923;0.5884;-0.3542;-0.5043;6;8.8737;0.4263;-0.0602;35.5809;4.3048;-5.3012;-1.1653;-0.1623;-0.1523;1;0;
528;0;-12.2096;7.7839;14.6518;-39.6128;-92.2841;-103.2078;0.0225;0.5643;-0.7323;1;0.9860;2.5518;9.3835;6.5612;-0.8596;3.3468;0.5764;-0.3422;-0.5223;6;8.7564;0.9950;-0.2335;34.4324;4.5815;-3.3595;-1.1649;-0.1616;-0.1168;1;0;
529;0;-13.7727;8.0763;14.7374;-20.8182;-93.2826;-97.3454;-0.0146;0.5653;-0.7511;1;0.4193;2.7844;9.7250;6.1787;-0.5301;2.6403;0.5704;-0.3482;-0.5103;6;9.3781;0.5960;-0.3941;32.5391;4.0343;-3.3994;-1.1814;-0.1630;-0.1704;1;0;
530;0;-14.9895;6.8625;13.9140;6.2583;-97.0170;-89.7702;-0.0726;0.5075;-0.8566;1;0.4751;3.0141;9.6686;6.7933;-1.7577;2.9513;0.5644;-0.3542;-0.4983;6;9.5402;0.4248;-0.8489;31.8355;3.4799;-5.0729;-1.1502;-0.2191;-0.1360;1;0;
531;0;-15.9559;5.3918;10.2965;23.3778;-106.4967;-77.2432;-0.1628;0.5114;-0.8618;1;1.0393;2.3206;9.1493;4.2754;-1.8339;4.1650;0.5824;-0.3662;-0.4983;6;9.4815;0.3111;-0.9645;29.4957;2.6658;-3.4730;-1.2145;-0.2404;-0.1735;1;0;
532;0;-17.4257;4.5949;8.8213;18.1466;-110.1057;-61.0790;-0.1654;0.5486;-0.8774;1;0.6471;2.2659;9.6100;8.8706;-3.8424;2.6135;0.5824;-0.3422;-0.5163;6;9.9322;0.4810;-1.1277;25.7461;1.5877;1.7007;-1.1653;-0.1439;-0.1872;1;0;
533;0;-17.5590;4.7790;8.1162;-0.8070;-95.1172;-45.5081;-0.2223;0.5687;-0.9134;1;0.9872;2.4946;9.4419;6.7701;-3.4242;3.3302;0.5764;-0.3422;-0.5103;6;9.6957;0.5377;-1.6470;21.1175;0.5454;6.5014;-1.1500;-0.2188;-0.1183;1;0;
534;0;-17.8446;5.9349;9.0307;-20.8835;-64.6280;-34.6614;-0.2563;0.5714;-0.8819;1;1.1574;2.8391;9.3881;9.7715;-5.6911;2.3427;0.5704;-0.3542;-0.5223;6;10.2726;0.5374;-1.1214;17.8752;-0.3567;10.0019;-1.1815;-0.2003;-0.1183;1;0;
535;0;-17.2295;6.2747;9.7960;-14.5581;-34.6899;-26.5261;-0.3509;0.5535;-0.9716;1;1.2265;2.3815;9.9730;8.1877;-7.8349;2.9793;0.5764;-0.3482;-0.5043;6;10.1616;0.2533;-1.0093;16.7558;-0.6757;8.8959;-1.1817;-0.2007;-0.1361;1;0;
536;0;-15.9740;6.2789;9.3511;6.6118;-16.3952;-18.9218;-0.2973;0.5895;-0.9505;1;1.0498;2.6108;9.7364;7.9347;-8.9816;2.9876;0.5824;-0.3362;-0.5163;6;9.7086;0.1971;-0.9604;16.9410;-0.7858;3.8195;-1.1327;-0.1418;-0.1155;1;0;
537;0;-15.6820;4.3023;8.7389;18.8118;-6.7304;-7.8247;-0.2939;0.5335;-0.9355;1;1.5082;2.6100;9.7452;8.2643;-11.3895;3.0615;0.5704;-0.3422;-0.5103;6;9.8763;0.6517;-1.0714;20.6842;-1.3535;-5.4540;-1.1976;-0.1825;-0.1713;1;0;
538;0;-14.2491;2.6757;8.0256;25.9471;4.2097;7.1773;-0.2984;0.5889;-0.9673;1;0.2502;3.7634;9.9605;7.4213;-16.9571;10.3519;0.5824;-0.3422;-0.5103;6;10.3875;0.3099;-1.0623;20.9593;-1.7845;-13.6396;-1.1822;-0.2202;-0.1545;1;0;
539;0;-12.5651;1.2750;7.8977;21.4390;17.3732;24.6495;-0.3290;0.5356;-0.9208;1;0.8238;3.9927;10.0311;11.4910;-19.3783;11.5102;0.5644;-0.3602;-0.5103;6;9.7517;0.3102;-1.7033;15.4305;-2.9524;-14.9586;-1.1663;-0.2198;-0.1541;1;0;
540;0;-10.3473;0.1704;7.3668;18.5403;27.6552;41.0856;-0.3347;0.5710;-0.9867;1;1.1335;2.6169;11.1434;-6.7656;-29.0159;12.8117;0.5764;-0.3542;-0.5103;6;9.8578;-0.4865;-2.1597;7.8487;-4.0061;-11.4829;-1.1671;-0.2585;-0.1731;1;0;
541;0;-18.3956;30.4896;10.0557;-204.8479;127.2402;-44.6433;-0.3141;0.5331;-0.9701;1;1.4636;3.5912;10.5100;-7.6984;-36.2649;15.7491;0.5584;-0.3542;-0.5043;6;9.5158;-0.0881;-2.2229;-0.4554;-5.2349;-4.2687;-1.1194;-0.2760;-0.1372;1;0;
542;0;3.2874;-8.4916;-1.0991;-22.5685;144.2288;40.5019;-0.2958;0.5517;-0.9517;1;1.3539;2.6144;10.6792;-21.1383;-48.5870;22.2935;0.5764;-0.3422;-0.5103;6;9.2954;1.3343;-1.7681;-6.4685;-7.3930;1.9473;-1.1495;-0.1808;-0.1348;1;0;
543;0;4.3140;5.5987;19.9310;-116.8685;157.3375;17.2132;-0.2811;0.6070;-0.9657;1;0.8674;3.6577;12.3142;-20.1059;-57.2723;28.2090;0.5524;-0.3482;-0.5103;6;10.3810;3.0394;-1.2319;-3.9341;-12.3575;2.2006;-1.1673;-0.2774;-0.1560;1;0;
544;0;4.2199;-5.9227;17.3303;11.3855;175.7530;-10.5073;-0.1685;0.5468;-0.9277;1;1.7628;1.8676;11.0350;-23.2577;-68.6267;27.8956;0.5644;-0.3482;-0.5223;6;11.9808;3.6635;-0.5727;-3.8597;-20.1227;-1.7355;-1.1663;-0.2198;-0.1541;1;0;
545;0;-0.3070;-1.1432;13.5135;103.1562;161.1508;-13.6064;-0.1729;0.6022;-0.9594;1;0.8175;5.0675;18.9366;-81.0147;-89.6881;28.4215;0.5644;-0.3542;-0.5223;6;13.4751;3.7194;0.4847;-7.2316;-25.0206;13.0753;-1.1821;-0.2386;-0.1195;1;0;
